Accel_X,Accel_Y,Accel_Z,Magneto_X,Magneto_Y,Magneto_Z,Gyro_X,Gyro_Y,Gyro_Z,Gravity_X,Gravity_Y,Gravity_Z,Quaternion_W,Quaternion_X,Quaternion_Y,Quaternion_Z,Pressure,Temperature,Time
0.10000000149011612,1.809999942779541,9.569999694824219,0.0625,-29.1875,-47.875,9.625,6.125,27.125,-0.09000000357627869,1.7699999809265137,9.640000343322754,0.993896484375,0.09112548828125,0.0108642578125,0.06170654296875,83064.8515625,23.358642578125,47208.0
-0.05000000074505806,1.9199999570846558,9.569999694824219,-0.0625,-27.375,-47.5,7.3125,6.4375,23.8125,-0.10999999940395355,1.8200000524520874,9.630000114440918,0.99310302734375,0.0936279296875,0.01251220703125,0.06982421875,100814.6015625,24.74394416809082,47248.0
-0.019999999552965164,2.109999895095825,9.510000228881836,-0.875,-29.1875,-46.5625,5.5,6.0625,22.125,-0.11999999731779099,1.8700000047683716,9.619999885559082,0.99224853515625,0.0958251953125,0.013916015625,0.0775146484375,100814.3203125,24.764720916748047,47288.0
-0.07000000029802322,2.180000066757202,9.529999732971191,0.1875,-29.25,-47.0625,2.375,6.5625,21.0625,-0.12999999523162842,1.899999976158142,9.609999656677246,0.9915771484375,0.09686279296875,0.01544189453125,0.084716796875,100813.8671875,24.797618865966797,47328.0
-0.14000000059604645,2.049999952316284,9.489999771118164,-0.875,-29.5,-48.75,-0.75,6.3125,19.875,-0.14000000059604645,1.909999966621399,9.609999656677246,0.990966796875,0.09661865234375,0.01690673828125,0.09161376953125,100813.0078125,24.8355655670166,47368.0
-0.20999999344348907,1.940000057220459,9.550000190734863,-0.875,-29.5,-48.75,-2.0625,6.0625,18.5625,-0.1599999964237213,1.899999976158142,9.609999656677246,0.99041748046875,0.09588623046875,0.01824951171875,0.097900390625,100811.9453125,24.872682571411133,47408.0
-0.23999999463558197,1.8200000524520874,9.59000015258789,-2.0,-29.1875,-46.0,-2.8125,3.625,15.875,-0.17000000178813934,1.8799999952316284,9.619999885559082,0.98992919921875,0.09490966796875,0.01885986328125,0.1031494140625,100810.4453125,24.906282424926758,47448.0
-0.20999999344348907,1.8200000524520874,9.569999694824219,-1.1875,-29.1875,-47.5,-1.375,1.375,11.9375,-0.17000000178813934,1.8700000047683716,9.619999885559082,0.98956298828125,0.094482421875,0.01885986328125,0.10699462890625,100809.2265625,24.936113357543945,47488.0
-0.1599999964237213,1.840000033378601,9.550000190734863,-1.5625,-29.5,-47.5,-1.75,-0.1875,8.75,-0.1599999964237213,1.8600000143051147,9.619999885559082,0.9892578125,0.09368896484375,0.01824951171875,0.110595703125,100808.046875,24.961938858032227,47528.0
-0.09000000357627869,1.7999999523162842,9.600000381469727,-1.5625,-28.375,-46.375,-2.4375,-1.5,8.125,-0.14000000059604645,1.850000023841858,9.619999885559082,0.9891357421875,0.0931396484375,0.01751708984375,0.112548828125,100806.7578125,24.985349655151367,47568.0
0.07000000029802322,1.7899999618530273,9.600000381469727,-1.5625,-28.375,-46.375,-2.125,-2.625,7.5,-0.11999999731779099,1.8300000429153442,9.630000114440918,0.9888916015625,0.092529296875,0.01629638671875,0.11492919921875,100805.640625,25.00464630126953,47608.0
0.10000000149011612,1.7799999713897705,9.569999694824219,-1.5625,-28.75,-48.0,-2.5,-1.9375,5.75,-0.09000000357627869,1.8200000524520874,9.630000114440918,0.98876953125,0.09173583984375,0.01507568359375,0.11676025390625,100805.1171875,25.021419525146484,47648.0
0.15000000596046448,1.6399999856948853,9.600000381469727,-2.375,-28.6875,-46.375,-4.125,-1.6875,3.4375,-0.07000000029802322,1.7899999618530273,9.630000114440918,0.98883056640625,0.09002685546875,0.013671875,0.117919921875,100804.859375,25.03456687927246,47688.0
0.14000000059604645,1.600000023841858,9.569999694824219,-3.375,-27.875,-48.375,-3.9375,-1.3125,0.625,-0.05000000074505806,1.7699999809265137,9.640000343322754,0.98895263671875,0.08892822265625,0.01300048828125,0.11798095703125,100803.484375,25.04618263244629,47728.0
0.15000000596046448,1.5,9.59000015258789,-2.375,-28.0,-47.1875,-4.0,-1.0625,-0.875,-0.029999999329447746,1.7300000190734863,9.649999618530273,0.9891357421875,0.0872802734375,0.0120849609375,0.11773681640625,100804.0234375,25.05718421936035,47768.0
0.11999999731779099,1.3899999856948853,9.600000381469727,-2.375,-28.0,-47.1875,-3.625,-1.125,0.0,-0.019999999552965164,1.7000000476837158,9.649999618530273,0.9892578125,0.0855712890625,0.01104736328125,0.11785888671875,100804.015625,25.067750930786133,47808.0
0.3100000023841858,1.1699999570846558,9.630000114440918,-2.6875,-29.1875,-48.375,-1.25,-1.0,2.5,0.0,1.659999966621399,9.65999984741211,0.9892578125,0.083984375,0.0093994140625,0.11907958984375,100803.875,25.073938369750977,47848.0
0.6200000047683716,1.0800000429153442,9.600000381469727,-3.375,-28.0,-48.0,3.875,1.75,10.1875,0.019999999552965164,1.649999976158142,9.65999984741211,0.98870849609375,0.08502197265625,0.0096435546875,0.12322998046875,100803.375,25.07916831970215,47888.0
0.5699999928474426,1.149999976158142,9.619999885559082,-2.6875,-28.375,-47.1875,11.125,8.8125,24.6875,0.019999999552965164,1.690000057220459,9.649999618530273,0.9873046875,0.0869140625,0.01025390625,0.1324462890625,100802.9296875,25.08365821838379,47928.0
0.3199999928474426,1.590000033378601,9.59000015258789,-3.75,-28.375,-47.5625,17.125,12.9375,37.375,0.009999999776482582,1.75,9.640000343322754,0.9849853515625,0.09185791015625,0.0137939453125,0.14556884765625,100803.328125,25.089340209960938,47968.0
0.2199999988079071,1.7599999904632568,9.569999694824219,-3.75,-28.375,-47.5625,17.625,13.0,44.25,-0.019999999552965164,1.8700000047683716,9.619999885559082,0.9820556640625,0.09735107421875,0.01763916015625,0.16070556640625,100803.03125,25.093019485473633,48008.0
0.2800000011920929,1.909999966621399,9.529999732971191,-3.0625,-28.375,-48.0,17.4375,13.1875,46.0625,-0.03999999910593033,1.9800000190734863,9.600000381469727,0.978759765625,0.1026611328125,0.02105712890625,0.17626953125,100802.9375,25.09693145751953,48048.0
0.2199999988079071,2.0899999141693115,9.460000038146973,-4.5625,-29.5,-46.5,17.625,13.6875,44.4375,-0.05000000074505806,2.0999999046325684,9.569999694824219,0.97528076171875,0.10797119140625,0.02471923828125,0.19122314453125,100803.3046875,25.10160255432129,48088.0
0.05999999865889549,2.309999942779541,9.399999618530273,-4.5625,-29.875,-47.0625,16.625,14.25,40.875,-0.07000000029802322,2.2100000381469727,9.550000190734863,0.9718017578125,0.11285400390625,0.0286865234375,0.20489501953125,100803.03125,25.10394859313965,48128.0
0.0,2.3499999046325684,9.359999656677246,-5.1875,-29.875,-47.1875,14.0625,13.125,36.4375,-0.10000000149011612,2.309999942779541,9.520000457763672,0.9693603515625,0.11602783203125,0.031494140625,0.21417236328125,100802.515625,25.105714797973633,48168.0
-0.07000000029802322,2.2799999713897705,9.399999618530273,-5.1875,-29.875,-47.1875,11.875,11.625,31.25,-0.12999999523162842,2.390000104904175,9.5,0.96636962890625,0.11944580078125,0.034912109375,0.22491455078125,100802.1171875,25.107608795166016,48208.0
-0.14000000059604645,2.259999990463257,9.380000114440918,-4.875,-30.875,-45.875,11.625,8.6875,25.0625,-0.14000000059604645,2.4700000286102295,9.479999542236328,0.96380615234375,0.1226806640625,0.03765869140625,0.23358154296875,100802.0390625,25.110187530517578,48248.0
-0.019999999552965164,2.3399999141693115,9.380000114440918,-5.5625,-30.875,-45.6875,11.5625,5.0,20.6875,-0.14000000059604645,2.5399999618530273,9.460000038146973,0.96160888671875,0.1260986328125,0.039306640625,0.2406005859375,100802.1953125,25.112117767333984,48288.0
-0.07999999821186066,2.4100000858306885,9.390000343322754,-6.375,-31.25,-45.25,11.3125,2.1875,18.875,-0.12999999523162842,2.609999895095825,9.449999809265137,0.95953369140625,0.12957763671875,0.04010009765625,0.246826171875,100802.046875,25.114715576171875,48328.0
0.05000000074505806,2.4200000762939453,9.390000343322754,-6.375,-31.25,-45.25,11.75,-1.6875,18.375,-0.09000000357627869,2.680000066757202,9.430000305175781,0.95751953125,0.1334228515625,0.03948974609375,0.25262451171875,100802.1953125,25.117258071899414,48368.0
0.27000001072883606,2.5899999141693115,9.279999732971191,-6.375,-31.25,-45.25,12.1875,-3.25,16.4375,-0.029999999329447746,2.75,9.40999984741211,0.95556640625,0.13763427734375,0.03826904296875,0.25787353515625,100802.3359375,25.119152069091797,48408.0
0.3400000035762787,2.640000104904175,9.220000267028809,-7.0625,-32.25,-44.75,12.0625,-4.75,12.75,0.019999999552965164,2.819999933242798,9.390000343322754,0.95391845703125,0.1419677734375,0.0367431640625,0.2618408203125,100802.2578125,25.12230682373047,48448.0
0.2800000011920929,2.7300000190734863,9.199999809265137,-8.1875,-33.0625,-43.6875,12.8125,-5.6875,10.4375,0.07999999821186066,2.9000000953674316,9.359999656677246,0.952392578125,0.1466064453125,0.03515625,0.264892578125,100802.234375,25.124670028686523,48488.0
0.3400000035762787,2.8399999141693115,9.170000076293945,-6.6875,-32.25,-44.1875,14.1875,-7.125,10.75,0.15000000596046448,2.9800000190734863,9.34000015258789,0.950439453125,0.15313720703125,0.0328369140625,0.26861572265625,100802.3984375,25.12701416015625,48528.0
0.4399999976158142,3.0199999809265137,9.149999618530273,-8.1875,-33.375,-44.0625,14.875,-8.8125,9.125,0.23000000417232513,3.069999933242798,9.300000190734863,0.94927978515625,0.157470703125,0.0311279296875,0.2703857421875,100802.21875,25.12993621826172,48568.0
0.5799999833106995,3.180000066757202,9.109999656677246,-8.1875,-33.375,-44.0625,14.75,-10.0625,6.5625,0.3100000023841858,3.1600000858306885,9.270000457763672,0.9478759765625,0.1634521484375,0.028564453125,0.27197265625,100802.0625,25.130964279174805,48608.0
0.5699999928474426,3.4100000858306885,8.979999542236328,-9.1875,-34.5,-42.1875,14.375,-10.0,4.375,0.4000000059604645,3.259999990463257,9.229999542236328,0.9466552734375,0.16943359375,0.02618408203125,0.2728271484375,100802.1484375,25.13231658935547,48648.0
0.7099999785423279,3.450000047683716,8.949999809265137,-9.5625,-34.0625,-42.0,13.4375,-10.625,3.1875,0.47999998927116394,3.3499999046325684,9.199999809265137,0.945556640625,0.17523193359375,0.0234375,0.27325439453125,100802.1484375,25.134498596191406,48688.0
0.7599999904632568,3.559999942779541,8.920000076293945,-10.6875,-34.875,-41.5,12.0,-8.5,2.0,0.550000011920929,3.430000066757202,9.15999984741211,0.94464111328125,0.18035888671875,0.02130126953125,0.2733154296875,100802.140625,25.13612174987793,48728.0
0.800000011920929,3.5199999809265137,8.949999809265137,-10.6875,-34.875,-41.5,9.1875,-7.5625,1.5,0.6100000143051147,3.5,9.130000114440918,0.94390869140625,0.184326171875,0.0194091796875,0.2733154296875,100801.6796875,25.13617706298828,48768.0
0.8999999761581421,3.6600000858306885,8.90999984741211,-10.375,-35.0,-41.5,7.1875,-5.3125,1.25,0.6600000262260437,3.549999952316284,9.109999656677246,0.9432373046875,0.1876220703125,0.0179443359375,0.27337646484375,100801.2890625,25.13680648803711,48808.0
0.7900000214576721,3.5799999237060547,8.899999618530273,-10.6875,-35.5625,-42.375,5.4375,-3.3125,2.125,0.6899999976158142,3.5899999141693115,9.09000015258789,0.94268798828125,0.19000244140625,0.01708984375,0.27374267578125,100801.421875,25.138429641723633,48848.0
0.7900000214576721,3.490000009536743,8.9399995803833,-10.375,-36.0,-40.6875,6.5,-2.8125,1.75,0.7200000286102295,3.630000114440918,9.079999923706055,0.942138671875,0.19232177734375,0.01654052734375,0.274169921875,100801.3828125,25.139080047607422,48888.0
0.7799999713897705,3.5199999809265137,8.869999885559082,-10.6875,-35.5625,-40.6875,7.875,-2.3125,2.125,0.7300000190734863,3.6600000858306885,9.0600004196167,0.94140625,0.19500732421875,0.01641845703125,0.27471923828125,100801.3203125,25.140125274658203,48928.0
0.6899999976158142,3.4800000190734863,8.949999809265137,-10.6875,-35.5625,-40.6875,11.0625,-0.4375,2.125,0.75,3.7300000190734863,9.029999732971191,0.94049072265625,0.198486328125,0.01727294921875,0.2752685546875,100801.5703125,25.1438045501709,48968.0
0.7799999713897705,3.9000000953674316,8.84000015258789,-10.375,-36.25,-39.5,12.0,0.5,0.3125,0.75,3.809999942779541,9.0,0.93963623046875,0.20233154296875,0.0184326171875,0.275390625,100800.8828125,25.144256591796875,49008.0
0.6000000238418579,3.930000066757202,8.739999771118164,-10.375,-36.25,-39.375,12.75,3.3125,-2.0625,0.7300000190734863,3.880000114440918,8.970000267028809,0.9388427734375,0.20611572265625,0.020751953125,0.27496337890625,100800.984375,25.14402198791504,49048.0
0.5,4.230000019073486,8.640000343322754,-10.375,-37.0625,-39.75,13.1875,4.375,-5.875,0.6899999976158142,3.9700000286102295,8.930000305175781,0.9383544921875,0.21026611328125,0.0240478515625,0.27337646484375,100801.2890625,25.144418716430664,49088.0
0.41999998688697815,4.489999771118164,8.640000343322754,-10.6875,-37.375,-38.5625,12.1875,4.875,-7.6875,0.6600000262260437,4.03000020980835,8.90999984741211,0.93817138671875,0.21337890625,0.02728271484375,0.2711181640625,100801.53125,25.14703369140625,49128.0
0.20000000298023224,4.650000095367432,8.670000076293945,-10.6875,-37.375,-38.5625,8.1875,4.9375,-9.0625,0.6000000238418579,4.099999904632568,8.880000114440918,0.93829345703125,0.21588134765625,0.03076171875,0.26837158203125,100801.4453125,25.14955711364746,49168.0
0.03999999910593033,4.650000095367432,8.739999771118164,-11.375,-37.75,-37.5,4.0625,2.1875,-9.8125,0.5099999904632568,4.179999828338623,8.850000381469727,0.93865966796875,0.21826171875,0.03466796875,0.26483154296875,100801.6015625,25.151470184326172,49208.0
0.15000000596046448,4.550000190734863,8.779999732971191,-10.0,-38.1875,-37.5,2.4375,-0.0625,-9.0,0.46000000834465027,4.21999979019165,8.829999923706055,0.93914794921875,0.219482421875,0.03668212890625,0.26171875,100801.296875,25.150585174560547,49248.0
0.1599999964237213,4.349999904632568,8.6899995803833,-9.5625,-38.875,-38.1875,0.0,-0.25,-8.25,0.41999998688697815,4.230000019073486,8.829999923706055,0.93988037109375,0.219482421875,0.03778076171875,0.25897216796875,100801.4609375,25.151073455810547,49288.0
0.27000001072883606,4.099999904632568,8.729999542236328,-9.1875,-38.875,-37.5625,-1.125,-1.1875,-7.9375,0.4000000059604645,4.230000019073486,8.829999923706055,0.940673828125,0.21905517578125,0.03814697265625,0.25640869140625,100800.828125,25.150279998779297,49328.0
0.15000000596046448,4.03000020980835,8.8100004196167,-9.1875,-38.875,-37.5625,-0.8125,-0.0625,-6.8125,0.3799999952316284,4.230000019073486,8.829999923706055,0.94134521484375,0.21844482421875,0.03863525390625,0.25421142578125,100800.796875,25.149126052856445,49368.0
0.18000000715255737,3.9800000190734863,8.789999961853027,-8.875,-38.5,-37.5625,0.5,-0.875,-5.9375,0.36000001430511475,4.21999979019165,8.84000015258789,0.9420166015625,0.21820068359375,0.03900146484375,0.2518310546875,100801.1484375,25.148818969726562,49408.0
0.20999999344348907,4.019999980926514,8.789999961853027,-8.5625,-39.5625,-37.875,1.3125,-0.9375,-5.3125,0.3499999940395355,4.21999979019165,8.84000015258789,0.94244384765625,0.2186279296875,0.039306640625,0.25,100801.078125,25.14687156677246,49448.0
0.07999999821186066,4.289999961853027,8.779999732971191,-7.5,-39.375,-38.0,1.5,-2.4375,-5.0625,0.3400000035762787,4.230000019073486,8.829999923706055,0.94287109375,0.21893310546875,0.03912353515625,0.24798583984375,100801.359375,25.147701263427734,49488.0
0.14000000059604645,4.199999809265137,8.75,-9.25,-39.6875,-37.6875,0.0625,-3.75,-5.625,0.3400000035762787,4.230000019073486,8.829999923706055,0.94329833984375,0.2191162109375,0.03863525390625,0.246337890625,100801.1171875,25.147754669189453,49528.0
0.25,4.260000228881836,8.699999809265137,-9.25,-39.6875,-37.6875,-1.0625,-4.875,-6.25,0.3400000035762787,4.230000019073486,8.829999923706055,0.9439697265625,0.21905517578125,0.03759765625,0.24395751953125,100800.609375,25.149539947509766,49568.0
0.18000000715255737,4.210000038146973,8.779999732971191,-7.875,-39.0,-37.6875,-3.5625,-4.5,-6.5625,0.3499999940395355,4.21999979019165,8.84000015258789,0.945068359375,0.2178955078125,0.0360107421875,0.240966796875,100800.5,25.15143394470215,49608.0
0.2199999988079071,4.090000152587891,8.75,-8.25,-39.375,-37.6875,-3.9375,-6.375,-6.5,0.36000001430511475,4.199999809265137,8.850000381469727,0.94573974609375,0.21728515625,0.03466796875,0.239013671875,100800.2578125,25.15056800842285,49648.0
0.30000001192092896,4.159999847412109,8.760000228881836,-7.5,-38.25,-38.0,-4.0625,-7.8125,-6.875,0.3799999952316284,4.179999828338623,8.859999656677246,0.94671630859375,0.21649169921875,0.0323486328125,0.23626708984375,100800.28125,25.15105438232422,49688.0
0.3499999940395355,4.119999885559082,8.800000190734863,-7.875,-39.0,-38.875,-5.5,-8.9375,-7.375,0.4099999964237213,4.150000095367432,8.869999885559082,0.94781494140625,0.21527099609375,0.02960205078125,0.2332763671875,100800.40625,25.152587890625,49728.0
0.44999998807907104,3.9200000762939453,8.739999771118164,-7.875,-39.0,-38.875,-5.75,-9.6875,-7.4375,0.44999998807907104,4.119999885559082,8.880000114440918,0.94891357421875,0.21417236328125,0.0264892578125,0.23016357421875,100800.3203125,25.153146743774414,49768.0
0.6100000143051147,3.859999895095825,8.710000038146973,-9.0,-38.5625,-37.6875,-4.1875,-10.5,-8.1875,0.49000000953674316,4.090000152587891,8.890000343322754,0.949951171875,0.21368408203125,0.02325439453125,0.226806640625,100800.578125,25.155311584472656,49808.0
0.7200000286102295,4.070000171661377,8.710000038146973,-8.6875,-38.5625,-38.375,-2.875,-9.6875,-7.125,0.5299999713897705,4.070000171661377,8.899999618530273,0.95068359375,0.21343994140625,0.02020263671875,0.22406005859375,100800.703125,25.15460777282715,49848.0
0.8600000143051147,4.010000228881836,8.710000038146973,-7.875,-39.6875,-38.0,-2.1875,-8.375,-3.9375,0.5799999833106995,4.059999942779541,8.899999618530273,0.95111083984375,0.21343994140625,0.0172119140625,0.22247314453125,100800.2578125,25.154102325439453,49888.0
0.8899999856948853,4.079999923706055,8.699999809265137,-7.875,-38.5625,-39.1875,-0.4375,-6.125,-0.25,0.6299999952316284,4.050000190734863,8.899999618530273,0.95111083984375,0.21417236328125,0.01483154296875,0.22210693359375,100800.1015625,25.15485954284668,49928.0
0.9800000190734863,4.289999961853027,8.649999618530273,-7.875,-38.5625,-39.1875,-0.9375,-4.0625,2.1875,0.6800000071525574,4.059999942779541,8.890000343322754,0.9508056640625,0.21490478515625,0.0128173828125,0.2227783203125,100800.34375,25.155437469482422,49968.0
0.8600000143051147,4.190000057220459,8.699999809265137,-8.6875,-37.875,-38.25,-3.1875,-1.9375,4.1875,0.7099999785423279,4.050000190734863,8.890000343322754,0.95062255859375,0.2144775390625,0.011474609375,0.2239990234375,100800.3671875,25.157024383544922,50008.0
0.8700000047683716,4.21999979019165,8.6899995803833,-8.5625,-38.25,-38.375,-4.375,-1.0625,4.625,0.7400000095367432,4.03000020980835,8.899999618530273,0.95050048828125,0.2135009765625,0.01031494140625,0.22552490234375,100800.296875,25.156482696533203,50048.0
0.800000011920929,4.119999885559082,8.65999984741211,-8.1875,-37.5,-39.1875,-4.75,-0.5625,6.0,0.7599999904632568,4.010000228881836,8.90999984741211,0.9503173828125,0.2122802734375,0.00933837890625,0.2275390625,100800.34375,25.156644821166992,50088.0
0.8299999833106995,4.039999961853027,8.739999771118164,-8.1875,-37.875,-38.75,-5.0,-1.0,7.0625,0.7799999713897705,3.9800000190734863,8.920000076293945,0.9500732421875,0.21099853515625,0.00811767578125,0.229736328125,100800.4453125,25.157926559448242,50128.0
0.8100000023841858,4.090000152587891,8.770000457763672,-8.1875,-37.875,-38.75,-5.6875,-0.5,8.0,0.8100000023841858,3.950000047683716,8.930000305175781,0.94976806640625,0.20947265625,0.0069580078125,0.2322998046875,100800.453125,25.158323287963867,50168.0
0.9100000262260437,4.039999961853027,8.800000190734863,-9.5625,-37.5,-39.5,-6.4375,-0.25,8.8125,0.8299999833106995,3.9100000858306885,8.949999809265137,0.94952392578125,0.20758056640625,0.00579833984375,0.23516845703125,100800.4609375,25.159189224243164,50208.0
0.8399999737739563,3.930000066757202,8.8100004196167,-10.0,-38.25,-39.0625,-8.625,0.5,8.9375,0.8600000143051147,3.859999895095825,8.970000267028809,0.94940185546875,0.20477294921875,0.00445556640625,0.238037109375,100800.6796875,25.160415649414062,50248.0
0.9100000262260437,3.6600000858306885,8.90999984741211,-9.5625,-37.5,-39.5,-11.3125,0.4375,9.0,0.8799999952316284,3.7899999618530273,8.989999771118164,0.949462890625,0.20111083984375,0.0030517578125,0.240966796875,100800.8125,25.160757064819336,50288.0
0.8600000143051147,3.4100000858306885,8.949999809265137,-10.0,-36.375,-38.6875,-10.875,0.6875,9.375,0.8999999761581421,3.7200000286102295,9.020000457763672,0.94940185546875,0.1976318359375,0.001708984375,0.24407958984375,100801.1875,25.1610107421875,50328.0
0.8700000047683716,3.3499999046325684,8.960000038146973,-10.0,-36.375,-38.6875,-9.9375,-0.625,9.25,0.9200000166893005,3.6500000953674316,9.050000190734863,0.94940185546875,0.1939697265625,6.103515625e-05,0.2470703125,100800.96875,25.160614013671875,50368.0
0.9300000071525574,3.0999999046325684,8.979999542236328,-11.0625,-36.375,-39.5,-9.875,-0.9375,8.75,0.949999988079071,3.559999942779541,9.079999923706055,0.94952392578125,0.189697265625,-0.0020751953125,0.24993896484375,100801.09375,25.16147804260254,50408.0
0.9599999785423279,2.880000114440918,9.020000457763672,-11.0625,-36.375,-40.6875,-8.6875,-2.375,8.25,0.9800000190734863,3.4700000286102295,9.109999656677246,0.94970703125,0.1851806640625,-0.00482177734375,0.25262451171875,100800.7578125,25.161550521850586,50448.0
1.1100000143051147,2.700000047683716,9.0600004196167,-11.0625,-35.6875,-40.6875,-6.125,-3.4375,7.3125,1.0299999713897705,3.369999885559082,9.140000343322754,0.94976806640625,0.18115234375,-0.008056640625,0.2550048828125,100800.4375,25.161027908325195,50488.0
1.2100000381469727,2.630000114440918,9.039999961853027,-11.0625,-35.6875,-40.6875,-3.3125,-4.0625,6.625,1.0800000429153442,3.2899999618530273,9.170000076293945,0.94970703125,0.17816162109375,-0.01141357421875,0.25726318359375,100800.1953125,25.16180419921875,50528.0
1.309999942779541,2.6600000858306885,9.079999923706055,-12.1875,-35.6875,-41.0625,0.3125,-4.625,6.5,1.1399999856948853,3.2300000190734863,9.180000305175781,0.94927978515625,0.177001953125,-0.0146484375,0.25946044921875,100800.3671875,25.162939071655273,50568.0
1.4299999475479126,2.7799999713897705,9.09000015258789,-12.5625,-35.0,-40.6875,3.5,-4.0,6.875,1.2000000476837158,3.2100000381469727,9.180000305175781,0.94854736328125,0.177490234375,-0.01715087890625,0.26165771484375,100800.140625,25.16265106201172,50608.0
1.4800000190734863,2.799999952316284,9.029999732971191,-12.5625,-35.6875,-41.375,5.8125,-3.875,6.4375,1.25,3.2100000381469727,9.170000076293945,0.9476318359375,0.17913818359375,-0.01922607421875,0.26373291015625,100800.2890625,25.164165496826172,50648.0
1.600000023841858,2.9600000381469727,9.010000228881836,-12.1875,-35.375,-41.0625,7.8125,-3.1875,5.5625,1.2999999523162842,3.240000009536743,9.15999984741211,0.94659423828125,0.18182373046875,-0.02032470703125,0.2655029296875,100800.6796875,25.16645622253418,50688.0
1.6200000047683716,3.180000066757202,8.979999542236328,-12.1875,-35.375,-41.0625,9.25,-1.0,4.875,1.3300000429153442,3.2899999618530273,9.130000114440918,0.945556640625,0.184814453125,-0.02008056640625,0.26708984375,100800.2578125,25.167015075683594,50728.0
1.559999942779541,3.3299999237060547,8.989999771118164,-13.25,-35.0,-39.875,8.8125,0.8125,4.75,1.340000033378601,3.3399999141693115,9.109999656677246,0.94451904296875,0.187744140625,-0.0196533203125,0.26873779296875,100799.875,25.168006896972656,50768.0
1.590000033378601,3.450000047683716,8.930000305175781,-12.875,-35.6875,-40.25,10.125,1.875,5.3125,1.350000023841858,3.4000000953674316,9.09000015258789,0.94329833984375,0.1910400390625,-0.01873779296875,0.27081298828125,100799.5546875,25.16761016845703,50808.0
1.5700000524520874,3.7699999809265137,8.930000305175781,-12.875,-35.6875,-40.6875,9.625,4.0,6.875,1.350000023841858,3.4600000381469727,9.069999694824219,0.9420166015625,0.19366455078125,-0.0169677734375,0.27337646484375,100799.515625,25.168458938598633,50848.0
1.6299999952316284,4.190000057220459,8.8100004196167,-13.5625,-36.0625,-39.0625,7.625,5.875,8.25,1.340000033378601,3.5,9.050000190734863,0.94091796875,0.19482421875,-0.01483154296875,0.276611328125,100799.8515625,25.16851234436035,50888.0
1.600000023841858,4.489999771118164,8.699999809265137,-13.5625,-36.0625,-39.0625,0.5625,9.3125,9.875,1.3200000524520874,3.509999990463257,9.050000190734863,0.93988037109375,0.19268798828125,-0.01214599609375,0.28167724609375,100800.03125,25.171451568603516,50928.0
2.0799999237060547,4.590000152587891,8.75,-14.0,-36.0625,-38.75,-8.875,23.375,34.0625,1.25,3.440000057220459,9.09000015258789,0.9364013671875,0.18701171875,-0.00726318359375,0.296875,100800.515625,25.17422866821289,50968.0
2.5299999713897705,4.630000114440918,8.680000305175781,-13.5625,-36.75,-39.875,-11.5625,48.0625,103.125,1.1799999475479126,3.309999942779541,9.149999618530273,0.92547607421875,0.17779541015625,0.000244140625,0.3345947265625,100800.28125,25.172840118408203,51008.0
1.7999999523162842,4.25,8.640000343322754,-14.6875,-35.375,-40.25,-15.4375,61.875,157.9375,1.1299999952316284,3.119999885559082,9.220000267028809,0.9063720703125,0.16546630859375,0.0086669921875,0.388671875,100800.25,25.17238998413086,51048.0
1.3200000524520874,3.6600000858306885,8.720000267028809,-15.75,-33.875,-41.25,-15.0,71.1875,185.5625,1.0800000429153442,2.940000057220459,9.279999732971191,0.8795166015625,0.1519775390625,0.01824951171875,0.45062255859375,100800.15625,25.171470642089844,51088.0
1.2200000286102295,3.319999933242798,8.869999885559082,-15.75,-33.875,-41.25,-11.0,72.3125,199.0,1.0,2.7300000190734863,9.359999656677246,0.8555908203125,0.1422119140625,0.025634765625,0.4970703125,100800.8203125,25.174806594848633,51128.0
0.8399999737739563,3.130000114440918,8.899999618530273,-17.6875,-31.0,-43.25,-7.125,71.9375,190.875,0.8600000143051147,2.509999990463257,9.430000305175781,0.81414794921875,0.126708984375,0.038330078125,0.56536865234375,100800.96875,25.176177978515625,51168.0
0.44999998807907104,2.7799999713897705,9.079999923706055,-19.875,-27.375,-45.375,-5.375,60.875,153.4375,0.7200000286102295,2.390000104904175,9.479999542236328,0.7867431640625,0.1160888671875,0.04705810546875,0.60443115234375,100800.8359375,25.174301147460938,51208.0
0.3700000047683716,2.799999952316284,9.260000228881836,-21.6875,-23.6875,-44.875,-5.6875,50.1875,105.25,0.5699999928474426,2.299999952316284,9.510000228881836,0.76788330078125,0.10614013671875,0.054443359375,0.62939453125,100800.59375,25.173471450805664,51248.0
-0.25,2.390000104904175,9.420000076293945,-21.25,-21.1875,-47.25,-7.4375,38.125,61.625,0.44999998807907104,2.25,9.529999732971191,0.75885009765625,0.0999755859375,0.05853271484375,0.640869140625,100801.0078125,25.175167083740234,51288.0
-0.14000000059604645,2.140000104904175,9.420000076293945,-21.25,-21.1875,-47.25,-5.25,25.3125,38.625,0.33000001311302185,2.200000047683716,9.550000190734863,0.750244140625,0.09423828125,0.06243896484375,0.65142822265625,100801.4140625,25.17873764038086,51328.0
-0.05000000074505806,2.2799999713897705,9.359999656677246,-21.25,-19.6875,-47.0,-3.8125,17.125,30.9375,0.23999999463558197,2.1700000762939453,9.5600004196167,0.74151611328125,0.08892822265625,0.06591796875,0.6617431640625,100801.3046875,25.180849075317383,51368.0
0.0,2.049999952316284,9.460000038146973,-20.875,-18.0625,-46.5,-5.0625,12.0,28.625,0.18000000715255737,2.130000114440918,9.5600004196167,0.7354736328125,0.08599853515625,0.06671142578125,0.66876220703125,100801.328125,25.1812801361084,51408.0
0.38999998569488525,1.9500000476837158,9.470000267028809,-20.5625,-17.375,-48.1875,-3.1875,7.75,22.1875,0.1599999964237213,2.0999999046325684,9.569999694824219,0.7308349609375,0.0838623046875,0.06756591796875,0.67401123046875,100801.2734375,25.181011199951172,51448.0
0.5099999904632568,2.1700000762939453,9.430000305175781,-20.5625,-17.75,-49.0,-3.25,10.1875,17.0,0.11999999731779099,2.0799999237060547,9.579999923706055,0.72796630859375,0.08154296875,0.0684814453125,0.67724609375,100801.1640625,25.180830001831055,51488.0
0.23999999463558197,1.9199999570846558,9.479999542236328,-20.5625,-17.75,-49.0,-5.125,10.3125,13.0,0.07999999821186066,2.049999952316284,9.579999923706055,0.7249755859375,0.078369140625,0.0693359375,0.68072509765625,100801.0703125,25.182416915893555,51528.0
0.07000000029802322,1.940000057220459,9.510000228881836,-20.5,-17.375,-49.6875,-4.875,8.8125,9.0,0.029999999329447746,2.0199999809265137,9.59000015258789,0.72296142578125,0.075439453125,0.07000732421875,0.68316650390625,100800.96875,25.18303108215332,51568.0
0.05000000074505806,1.8899999856948853,9.550000190734863,-20.5,-16.25,-49.5625,-4.5625,6.25,5.0,0.0,1.9900000095367432,9.600000381469727,0.721923828125,0.07305908203125,0.07025146484375,0.68450927734375,100800.5,25.182327270507812,51608.0
0.0,1.8600000143051147,9.630000114440918,-20.5,-15.1875,-49.25,-4.75,3.3125,0.1875,-0.019999999552965164,1.9600000381469727,9.600000381469727,0.72216796875,0.07122802734375,0.06976318359375,0.6844482421875,100800.3671875,25.182958602905273,51648.0
0.1599999964237213,1.809999942779541,9.579999923706055,-19.875,-15.6875,-49.6875,-4.5625,-0.25,-7.0625,-0.029999999329447746,1.9199999570846558,9.609999656677246,0.72406005859375,0.070068359375,0.068603515625,0.6827392578125,100800.6796875,25.1868896484375,51688.0
0.25,1.909999966621399,9.579999923706055,-19.875,-15.6875,-49.6875,-4.75,-0.4375,-10.5,-0.029999999329447746,1.8899999856948853,9.619999885559082,0.7265625,0.06884765625,0.0673828125,0.6802978515625,100800.6015625,25.18869400024414,51728.0
0.17000000178813934,1.850000023841858,9.5600004196167,-20.5625,-16.375,-50.0625,-6.0625,0.3125,-11.5,-0.03999999910593033,1.8600000143051147,9.619999885559082,0.7293701171875,0.0672607421875,0.06597900390625,0.67755126953125,100800.4609375,25.190046310424805,51768.0
0.11999999731779099,1.7100000381469727,9.630000114440918,-20.5,-15.25,-49.5,-7.4375,0.125,-12.75,-0.05000000074505806,1.809999942779541,9.630000114440918,0.73248291015625,0.06524658203125,0.0643310546875,0.674560546875,100800.4765625,25.1893253326416,51808.0
0.15000000596046448,1.600000023841858,9.569999694824219,-20.5,-14.1875,-49.1875,-7.3125,-0.625,-13.875,-0.05999999865889549,1.7599999904632568,9.640000343322754,0.73583984375,0.06341552734375,0.0626220703125,0.67120361328125,100800.3359375,25.189937591552734,51848.0
0.10000000149011612,1.5499999523162842,9.619999885559082,-18.6875,-14.875,-50.0,-7.0625,-1.5,-15.5625,-0.07000000029802322,1.7100000381469727,9.649999618530273,0.7396240234375,0.06170654296875,0.060546875,0.66741943359375,100800.59375,25.190982818603516,51888.0
0.12999999523162842,1.3700000047683716,9.600000381469727,-18.6875,-14.875,-50.0,-5.3125,-3.1875,-17.0625,-0.05999999865889549,1.659999966621399,9.65999984741211,0.74365234375,0.06072998046875,0.0582275390625,0.6632080078125,100800.390625,25.191181182861328,51928.0
0.1899999976158142,1.440000057220459,9.59000015258789,-19.0625,-14.5625,-50.375,-2.6875,-3.875,-18.0625,-0.05000000074505806,1.6200000047683716,9.670000076293945,0.74786376953125,0.0606689453125,0.05633544921875,0.65869140625,100800.8046875,25.193058013916016,51968.0
0.2800000011920929,1.4900000095367432,9.600000381469727,-18.0,-14.875,-49.5625,-1.25,-4.375,-18.1875,-0.029999999329447746,1.600000023841858,9.670000076293945,0.75201416015625,0.0611572265625,0.05474853515625,0.654052734375,100801.3046875,25.193328857421875,52008.0
0.27000001072883606,1.5499999523162842,9.630000114440918,-18.375,-14.875,-49.0,-0.6875,-4.0625,-17.9375,-0.009999999776482582,1.600000023841858,9.670000076293945,0.75604248046875,0.06182861328125,0.05352783203125,0.6494140625,100800.875,25.1940860748291,52048.0
0.28999999165534973,1.5800000429153442,9.65999984741211,-19.5,-14.875,-50.1875,-0.6875,-4.0625,-17.0625,0.0,1.590000033378601,9.670000076293945,0.759765625,0.0625,0.0523681640625,0.64501953125,100800.6328125,25.19466209411621,52088.0
0.3100000023841858,1.6399999856948853,9.600000381469727,-19.5,-14.875,-50.1875,-1.0,-3.3125,-15.25,0.009999999776482582,1.590000033378601,9.670000076293945,0.76312255859375,0.06292724609375,0.05126953125,0.64111328125,100800.703125,25.19509506225586,52128.0
0.27000001072883606,1.5299999713897705,9.5600004196167,-18.0,-16.0,-49.375,-2.5,-2.8125,-14.0,0.019999999552965164,1.5700000524520874,9.670000076293945,0.76617431640625,0.0628662109375,0.050048828125,0.6375732421875,100800.5078125,25.194265365600586,52168.0
0.23000000417232513,1.4700000286102295,9.539999961853027,-18.375,-14.875,-49.375,-2.0625,-2.4375,-12.5,0.029999999329447746,1.559999942779541,9.680000305175781,0.7689208984375,0.06292724609375,0.0489501953125,0.63433837890625,100801.0625,25.1965389251709,52208.0
0.27000001072883606,1.4900000095367432,9.569999694824219,-19.0625,-16.0,-49.6875,-1.25,-2.4375,-10.9375,0.05000000074505806,1.5499999523162842,9.680000305175781,0.771240234375,0.0631103515625,0.0479736328125,0.631591796875,100800.640625,25.195924758911133,52248.0
0.23000000417232513,1.5199999809265137,9.5600004196167,-18.375,-15.25,-50.1875,-0.6875,-2.8125,-9.0625,0.05999999865889549,1.5399999618530273,9.680000305175781,0.773193359375,0.06353759765625,0.04705810546875,0.62921142578125,100800.6640625,25.19662857055664,52288.0
0.27000001072883606,1.4800000190734863,9.550000190734863,-18.375,-15.25,-50.1875,0.0625,-3.625,-7.5625,0.07999999821186066,1.5399999618530273,9.680000305175781,0.77484130859375,0.06439208984375,0.0460205078125,0.627197265625,100800.1640625,25.19599723815918,52328.0
0.4099999964237213,1.6100000143051147,9.539999961853027,-19.5,-15.6875,-49.75,0.8125,-3.9375,-6.4375,0.10000000149011612,1.5399999618530273,9.680000305175781,0.77618408203125,0.06573486328125,0.0450439453125,0.62542724609375,100800.375,25.197240829467773,52368.0
0.47999998927116394,1.690000057220459,9.600000381469727,-18.6875,-15.6875,-49.0,0.1875,-3.0625,-5.0625,0.12999999523162842,1.5499999523162842,9.680000305175781,0.7772216796875,0.0670166015625,0.0439453125,0.62408447265625,100800.4296875,25.197620391845703,52408.0
0.5099999904632568,1.7400000095367432,9.5600004196167,-19.0625,-16.75,-48.5625,-1.5625,-1.875,-3.8125,0.1599999964237213,1.559999942779541,9.680000305175781,0.7779541015625,0.06768798828125,0.0428466796875,0.6231689453125,100799.984375,25.19673728942871,52448.0
0.5199999809265137,1.7300000190734863,9.630000114440918,-19.0625,-16.75,-48.5625,-3.1875,-0.3125,-2.0625,0.18000000715255737,1.5499999523162842,9.680000305175781,0.77838134765625,0.0673828125,0.04180908203125,0.62274169921875,100799.671875,25.197223663330078,52488.0
0.44999998807907104,1.649999976158142,9.65999984741211,-19.875,-16.0,-49.75,-3.6875,1.5,-1.4375,0.18000000715255737,1.5199999809265137,9.680000305175781,0.77874755859375,0.0662841796875,0.0411376953125,0.62249755859375,100799.578125,25.19875717163086,52528.0
0.38999998569488525,1.4600000381469727,9.619999885559082,-18.6875,-16.0,-49.0,-4.875,1.75,-2.0,0.17000000178813934,1.4900000095367432,9.680000305175781,0.77923583984375,0.064697265625,0.04034423828125,0.6220703125,100799.5859375,25.198162078857422,52568.0
0.25999999046325684,1.3899999856948853,9.619999885559082,-20.1875,-15.6875,-49.75,-4.5,2.375,-1.75,0.1599999964237213,1.4600000381469727,9.6899995803833,0.7796630859375,0.06298828125,0.03985595703125,0.62176513671875,100799.5234375,25.198883056640625,52608.0
0.25999999046325684,1.409999966621399,9.59000015258789,-18.375,-15.6875,-49.75,-4.5,2.125,-0.6875,0.15000000596046448,1.4299999475479126,9.699999809265137,0.77972412109375,0.061279296875,0.0394287109375,0.62188720703125,100800.109375,25.20171356201172,52648.0
0.18000000715255737,1.3799999952316284,9.680000305175781,-18.375,-15.6875,-49.75,-5.1875,2.375,0.9375,0.12999999523162842,1.399999976158142,9.699999809265137,0.77960205078125,0.05938720703125,0.03875732421875,0.62225341796875,100799.625,25.20097541809082,52688.0
-0.009999999776482582,1.2899999618530273,9.779999732971191,-18.6875,-15.6875,-50.5,-5.5,0.4375,-0.75,0.11999999731779099,1.3600000143051147,9.710000038146973,0.77996826171875,0.0577392578125,0.0377197265625,0.62200927734375,100799.71875,25.20155143737793,52728.0
-0.019999999552965164,1.2599999904632568,9.979999542236328,-18.6875,-14.875,-51.0,-5.0625,-1.8125,-3.8125,0.11999999731779099,1.3200000524520874,9.710000038146973,0.78106689453125,0.0567626953125,0.03631591796875,0.62078857421875,100799.625,25.200849533081055,52768.0
0.05000000074505806,1.3899999856948853,9.859999656677246,-18.6875,-14.875,-49.75,-5.375,-2.625,-8.3125,0.14000000059604645,1.2899999618530273,9.710000038146973,0.7830810546875,0.0555419921875,0.03472900390625,0.61846923828125,100799.9296875,25.20319366455078,52808.0
0.009999999776482582,1.309999942779541,9.819999694824219,-18.375,-15.25,-49.0,-7.8125,-0.125,-12.0,0.12999999523162842,1.2599999904632568,9.720000267028809,0.7861328125,0.05242919921875,0.0335693359375,0.6148681640625,100800.1640625,25.203805923461914,52848.0
-0.6499999761581421,0.8500000238418579,9.34000015258789,-18.375,-15.25,-49.0,-11.125,2.4375,-18.1875,0.10000000149011612,1.190000057220459,9.729999542236328,0.79107666015625,0.0489501953125,0.03192138671875,0.60894775390625,100800.4453125,25.20598793029785,52888.0
-0.8899999856948853,0.44999998807907104,9.5,-18.375,-14.1875,-50.1875,-12.375,-2.4375,-36.125,0.07999999821186066,1.100000023841858,9.739999771118164,0.7991943359375,0.046142578125,0.02899169921875,0.59857177734375,100799.859375,25.207630157470703,52928.0
-1.2899999618530273,0.20999999344348907,9.920000076293945,-18.6875,-14.1875,-49.875,-11.3125,-15.875,-57.4375,0.10999999940395355,1.0199999809265137,9.75,0.8116455078125,0.04638671875,0.0228271484375,0.58184814453125,100799.9375,25.207141876220703,52968.0
-1.1100000143051147,-0.28999999165534973,10.0600004196167,-18.0,-14.875,-51.5,-5.8125,-30.875,-80.5625,0.23999999463558197,0.9900000095367432,9.75,0.83087158203125,0.0526123046875,0.01361083984375,0.5538330078125,100799.7421875,25.206186294555664,53008.0
-0.30000001192092896,0.10000000149011612,9.619999885559082,-18.0,-15.6875,-50.25,4.3125,-48.0625,-140.875,0.4000000059604645,1.0199999809265137,9.739999771118164,0.85064697265625,0.0599365234375,0.00592041015625,0.52227783203125,100799.8046875,25.207773208618164,53048.0
-0.5199999809265137,-0.05000000074505806,9.40999984741211,-18.0,-15.6875,-50.25,12.5625,-59.375,-186.5,0.6299999952316284,1.1299999952316284,9.720000267028809,0.88226318359375,0.07440185546875,-0.0054931640625,0.46484375,100799.6640625,25.21013641357422,53088.0
0.0,0.47999998927116394,9.130000114440918,-18.0,-17.875,-49.0,24.0,-76.1875,-222.9375,0.9900000095367432,1.4500000476837158,9.640000343322754,0.92120361328125,0.09991455078125,-0.02215576171875,0.37542724609375,100799.671875,25.210731506347656,53128.0
0.4000000059604645,1.440000057220459,8.979999542236328,-17.25,-20.75,-48.5625,35.1875,-82.125,-239.0,1.2599999904632568,1.850000023841858,9.539999961853027,0.9462890625,0.1234130859375,-0.03546142578125,0.2967529296875,100799.875,25.208892822265625,53168.0
0.5,2.1500000953674316,8.6899995803833,-16.1875,-25.5,-46.1875,40.5,-88.1875,-240.1875,1.4800000190734863,2.3299999237060547,9.399999618530273,0.963623046875,0.147705078125,-0.04949951171875,0.21722412109375,100800.1171875,25.2092342376709,53208.0
1.7899999618530273,4.539999961853027,9.199999809265137,-13.375,-30.5625,-44.6875,32.75,-82.1875,-221.875,1.590000033378601,2.690000057220459,9.289999961853027,0.9718017578125,0.16058349609375,-0.05877685546875,0.16229248046875,100800.1171875,25.20890998840332,53248.0
1.6399999856948853,3.740000009536743,9.1899995803833,-13.375,-30.5625,-44.6875,11.1875,-63.75,-187.75,1.6399999856948853,3.009999990463257,9.180000305175781,0.97802734375,0.17059326171875,-0.06842041015625,0.09808349609375,100799.9765625,25.21038818359375,53288.0
1.7300000190734863,3.390000104904175,9.5,-12.0,-34.25,-42.6875,3.75,-46.5,-161.25,1.590000033378601,3.2899999618530273,9.09000015258789,0.98046875,0.1768798828125,-0.07391357421875,0.04364013671875,100800.15625,25.210351943969727,53328.0
1.190000057220459,3.109999895095825,9.279999732971191,-7.5625,-35.6875,-42.1875,5.375,-33.1875,-128.25,1.5199999809265137,3.4200000762939453,9.0600004196167,0.980224609375,0.1822509765625,-0.0770263671875,0.0006103515625,100799.8671875,25.20975685119629,53368.0
1.0700000524520874,3.4800000190734863,9.029999732971191,-5.0625,-36.75,-41.6875,6.4375,-26.1875,-99.875,1.440000057220459,3.569999933242798,9.010000228881836,0.97869873046875,0.1865234375,-0.0794677734375,-0.0330810546875,100799.6171875,25.208728790283203,53408.0
1.5,3.5899999141693115,8.850000381469727,-2.5625,-36.75,-41.75,-0.875,-18.8125,-78.75,1.3600000143051147,3.6700000762939453,8.989999771118164,0.97723388671875,0.1873779296875,-0.0802001953125,-0.05926513671875,100799.7890625,25.20853042602539,53448.0
1.0499999523162842,3.180000066757202,9.0600004196167,-2.5625,-36.75,-41.75,-15.5,-6.1875,-56.4375,1.2599999904632568,3.6600000858306885,9.0,0.976806640625,0.183349609375,-0.078125,-0.07794189453125,100799.3515625,25.204923629760742,53488.0
0.7300000190734863,2.7100000381469727,9.09000015258789,0.75,-36.75,-42.0625,-20.6875,1.875,-39.0625,1.159999966621399,3.5799999237060547,9.050000190734863,0.97711181640625,0.17742919921875,-0.0743408203125,-0.0906982421875,100799.4609375,25.202219009399414,53528.0
0.11999999731779099,2.1600000858306885,9.119999885559082,2.25,-36.875,-42.375,-22.75,6.6875,-27.125,1.0499999523162842,3.4700000286102295,9.109999656677246,0.977783203125,0.1707763671875,-0.0699462890625,-0.099609375,100799.2890625,25.19902801513672,53568.0
-0.18000000715255737,2.0899999141693115,9.100000381469727,2.25,-35.75,-42.0,-23.4375,4.1875,-20.8125,0.9599999785423279,3.3399999141693115,9.15999984741211,0.97845458984375,0.16363525390625,-0.0667724609375,-0.10675048828125,100799.203125,25.196645736694336,53608.0
-0.019999999552965164,2.5299999713897705,9.180000305175781,3.75,-35.75,-41.875,-25.875,-0.8125,-19.0625,0.8799999952316284,3.180000066757202,9.229999542236328,0.97943115234375,0.15380859375,-0.06341552734375,-0.1141357421875,100799.40625,25.19599723815918,53648.0
0.25,2.1600000858306885,9.520000457763672,3.75,-35.75,-41.875,-35.5,-2.4375,-23.25,0.8500000238418579,2.990000009536743,9.289999961853027,0.980224609375,0.14227294921875,-0.0615234375,-0.1229248046875,100798.5625,25.19610595703125,53688.0
0.3799999952316284,2.0999999046325684,9.880000114440918,4.6875,-35.0625,-42.6875,-44.0,-2.9375,-33.3125,0.8100000023841858,2.75,9.369999885559082,0.98065185546875,0.1280517578125,-0.05877685546875,-0.1361083984375,100799.0078125,25.196754455566406,53728.0
0.25999999046325684,0.9700000286102295,10.399999618530273,5.875,-33.25,-43.875,-46.5625,-1.0625,-53.75,0.7400000095367432,2.4800000190734863,9.449999809265137,0.979736328125,0.114013671875,-0.0548095703125,-0.1551513671875,100798.5859375,25.196086883544922,53768.0
-0.09000000357627869,0.9800000190734863,10.789999961853027,7.25,-31.75,-47.0,-39.0,-5.875,-62.1875,0.6700000166893005,2.240000009536743,9.520000457763672,0.97747802734375,0.10211181640625,-0.0528564453125,-0.17706298828125,100798.3828125,25.19558334350586,53808.0
0.699999988079071,1.2100000381469727,10.789999961853027,7.875,-30.6875,-46.6875,-30.875,-14.625,-67.5625,0.6499999761581421,2.049999952316284,9.5600004196167,0.9739990234375,0.09222412109375,-0.0533447265625,-0.20001220703125,100797.90625,25.195798873901367,53848.0
1.4199999570846558,1.5199999809265137,11.829999923706055,7.875,-30.6875,-46.6875,-27.8125,-9.375,-58.875,0.6499999761581421,1.8899999856948853,9.59000015258789,0.97064208984375,0.08349609375,-0.0521240234375,-0.21942138671875,100798.03125,25.197673797607422,53888.0
0.7300000190734863,1.3899999856948853,10.800000190734863,8.25,-27.6875,-46.6875,-22.625,1.3125,-43.75,0.6000000238418579,1.7400000095367432,9.630000114440918,0.968017578125,0.07720947265625,-0.04888916015625,-0.23370361328125,100798.2421875,25.199657440185547,53928.0
0.4099999964237213,1.7799999713897705,9.09000015258789,9.375,-27.375,-48.25,-15.9375,2.8125,-34.75,0.5400000214576721,1.6399999856948853,9.649999618530273,0.96563720703125,0.07275390625,-0.0458984375,-0.24530029296875,100797.65625,25.200000762939453,53968.0
0.47999998927116394,1.649999976158142,8.199999809265137,10.75,-25.375,-48.5,-22.75,3.4375,-34.0,0.49000000953674316,1.5299999713897705,9.670000076293945,0.96343994140625,0.0662841796875,-0.041748046875,-0.25616455078125,100797.703125,25.200252532958984,54008.0
0.23999999463558197,1.100000023841858,8.390000343322754,10.6875,-24.25,-48.0,-22.5,9.5625,-23.375,0.4099999964237213,1.3899999856948853,9.6899995803833,0.962158203125,0.0604248046875,-0.0361328125,-0.2633056640625,100797.640625,25.202760696411133,54048.0
-0.1599999964237213,0.4699999988079071,9.449999809265137,10.6875,-24.25,-48.0,-13.25,11.5,-11.125,0.3199999928474426,1.2699999809265137,9.710000038146973,0.96160888671875,0.0577392578125,-0.03118896484375,-0.26654052734375,100797.15625,25.202903747558594,54088.0
-0.20999999344348907,0.28999999165534973,9.6899995803833,12.875,-23.5625,-49.1875,0.125,10.9375,-4.1875,0.23999999463558197,1.2400000095367432,9.720000267028809,0.9613037109375,0.05963134765625,-0.02783203125,-0.2674560546875,100797.4296875,25.204744338989258,54128.0
-0.18000000715255737,0.9700000286102295,9.319999694824219,12.875,-23.25,-48.6875,13.5,11.25,2.375,0.17000000178813934,1.309999942779541,9.710000038146973,0.96142578125,0.06488037109375,-0.02557373046875,-0.2659912109375,100797.859375,25.20669174194336,54168.0
-0.47999998927116394,1.6299999952316284,8.84000015258789,13.6875,-23.5,-49.6875,8.5625,6.75,9.1875,0.11999999731779099,1.3799999952316284,9.699999809265137,0.96221923828125,0.0672607421875,-0.024658203125,-0.26275634765625,100798.3828125,25.20757484436035,54208.0
-0.36000001430511475,1.2899999618530273,8.699999809265137,14.0625,-23.75,-48.75,-6.4375,-4.5625,11.5,0.12999999523162842,1.3700000047683716,9.699999809265137,0.96337890625,0.064453125,-0.02606201171875,-0.25909423828125,100798.0078125,25.207666397094727,54248.0
0.47999998927116394,0.36000001430511475,8.920000076293945,14.0625,-23.75,-48.75,-9.75,-10.0,12.125,0.20000000298023224,1.309999942779541,9.710000038146973,0.96453857421875,0.06036376953125,-0.02874755859375,-0.25543212890625,100797.9296875,25.208314895629883,54288.0
1.059999942779541,0.23999999463558197,9.050000190734863,14.0625,-24.5625,-48.0625,-7.5625,-8.8125,11.75,0.27000001072883606,1.25,9.720000267028809,0.965576171875,0.0570068359375,-0.03094482421875,-0.25189208984375,100797.9453125,25.2076473236084,54328.0
1.409999966621399,0.10000000149011612,9.420000076293945,12.5625,-24.5625,-47.5625,-4.9375,-2.6875,10.0625,0.3199999928474426,1.2100000381469727,9.720000267028809,0.966552734375,0.05535888671875,-0.031494140625,-0.24853515625,100798.2421875,25.20945167541504,54368.0
1.2799999713897705,0.25999999046325684,9.970000267028809,12.1875,-24.5625,-49.1875,1.25,2.5625,15.0,0.3199999928474426,1.2000000476837158,9.720000267028809,0.96795654296875,0.05615234375,-0.03082275390625,-0.2427978515625,100797.8515625,25.210803985595703,54408.0
1.0299999713897705,1.2699999809265137,11.350000381469727,12.1875,-24.5625,-49.1875,2.8125,8.5,32.875,0.30000001192092896,1.2200000286102295,9.720000267028809,0.9708251953125,0.05682373046875,-0.028564453125,-0.2313232421875,100798.125,25.212966918945312,54448.0
0.9100000262260437,0.6800000071525574,12.010000228881836,12.875,-25.0,-47.875,-2.375,15.9375,43.125,0.25,1.190000057220459,9.720000267028809,0.9742431640625,0.057373046875,-0.02386474609375,-0.2169189453125,100797.71875,25.214609146118164,54488.0
-0.33000001311302185,0.8199999928474426,12.229999542236328,12.5625,-25.25,-47.75,5.6875,17.1875,40.1875,0.1599999964237213,1.2100000381469727,9.729999542236328,0.97698974609375,0.06036376953125,-0.01995849609375,-0.2037353515625,100798.0546875,25.21697235107422,54528.0
-1.5299999713897705,2.0999999046325684,12.069999694824219,12.1875,-25.1875,-47.75,-0.5625,1.75,30.125,0.12999999523162842,1.2400000095367432,9.720000267028809,0.97894287109375,0.05963134765625,-0.0206298828125,-0.19415283203125,100798.2109375,25.21817970275879,54568.0
-0.4099999964237213,0.9700000286102295,9.600000381469727,10.6875,-27.0625,-48.1875,-5.5625,-8.375,24.625,0.20000000298023224,1.2000000476837158,9.729999542236328,0.98040771484375,0.05810546875,-0.02301025390625,-0.1866455078125,100798.21875,25.218503952026367,54608.0
-1.2200000286102295,1.7400000095367432,9.140000343322754,10.6875,-27.0625,-48.1875,5.4375,-5.4375,19.6875,0.23999999463558197,1.2000000476837158,9.720000267028809,0.98138427734375,0.057373046875,-0.0267333984375,-0.18145751953125,100798.21875,25.221065521240234,54648.0
-0.11999999731779099,0.7099999785423279,8.0600004196167,10.6875,-27.6875,-46.0625,-9.9375,-17.75,7.375,0.3700000047683716,1.159999966621399,9.720000267028809,0.98175048828125,0.05340576171875,-0.0316162109375,-0.1798095703125,100798.3203125,25.222400665283203,54688.0
0.4399999976158142,-0.28999999165534973,9.109999656677246,9.6875,-27.6875,-48.0625,4.0,-3.5625,-1.75,0.4300000071525574,1.1399999856948853,9.729999542236328,0.9814453125,0.0556640625,-0.03277587890625,-0.1805419921875,100797.734375,25.221101760864258,54728.0
-0.20999999344348907,0.4699999988079071,9.130000114440918,9.25,-27.375,-47.6875,23.5,5.9375,-4.3125,0.4099999964237213,1.25,9.710000038146973,0.98077392578125,0.06439208984375,-0.0322265625,-0.1815185546875,100797.171875,25.220109939575195,54768.0
-0.7699999809265137,1.2400000095367432,8.6899995803833,9.6875,-28.0625,-48.0,32.125,5.0625,-3.1875,0.3799999952316284,1.399999976158142,9.6899995803833,0.9798583984375,0.07537841796875,-0.03338623046875,-0.1817626953125,100797.015625,25.2199649810791,54808.0
-0.5299999713897705,1.940000057220459,8.890000343322754,9.6875,-28.0625,-48.0,31.0,-2.6875,0.875,0.3700000047683716,1.6100000143051147,9.65999984741211,0.97930908203125,0.08416748046875,-0.036865234375,-0.180419921875,100797.1953125,25.22330093383789,54848.0
0.10999999940395355,1.7899999618530273,9.0600004196167,8.875,-31.0625,-45.5625,20.5625,-6.75,7.4375,0.4300000071525574,1.7999999523162842,9.619999885559082,0.979248046875,0.0897216796875,-0.03997802734375,-0.1773681640625,100797.125,25.224655151367188,54888.0
-0.019999999552965164,1.5,9.100000381469727,10.0,-32.0625,-46.5,16.0,-3.125,10.6875,0.4699999988079071,1.909999966621399,9.600000381469727,0.97930908203125,0.09503173828125,-0.0421142578125,-0.173828125,100797.0,25.225086212158203,54928.0
-0.019999999552965164,1.8799999952316284,8.920000076293945,8.875,-32.875,-45.5,17.75,-0.5625,8.875,0.47999998927116394,2.0199999809265137,9.579999923706055,0.979248046875,0.100341796875,-0.04248046875,-0.17095947265625,100796.65625,25.224853515625,54968.0
-0.33000001311302185,2.369999885559082,8.6899995803833,8.5625,-33.1875,-44.75,14.5,4.125,6.5,0.4699999988079071,2.0899999141693115,9.5600004196167,0.979248046875,0.10369873046875,-0.0418701171875,-0.16912841796875,100796.6171875,25.224655151367188,55008.0
-0.6200000047683716,3.359999895095825,9.069999694824219,8.5625,-33.1875,-44.75,0.75,8.5625,7.9375,0.4300000071525574,2.140000104904175,9.5600004196167,0.97998046875,0.10296630859375,-0.03887939453125,-0.16583251953125,100796.6171875,25.227413177490234,55048.0
-0.9399999976158142,2.390000104904175,10.199999809265137,8.5625,-33.6875,-43.6875,-26.0625,16.25,16.875,0.3499999940395355,1.9700000286102295,9.59000015258789,0.9827880859375,0.09185791015625,-0.03033447265625,-0.1575927734375,100796.9765625,25.228315353393555,55088.0
-2.5199999809265137,1.1200000047683716,11.489999771118164,7.5,-34.375,-45.25,-35.375,18.625,25.1875,0.25999999046325684,1.7400000095367432,9.640000343322754,0.985107421875,0.08123779296875,-0.02606201171875,-0.14923095703125,100797.3203125,25.227251052856445,55128.0
-1.8899999856948853,1.2799999713897705,14.489999771118164,7.5625,-33.25,-44.5,-28.8125,0.5625,24.0,0.2800000011920929,1.5499999523162842,9.670000076293945,0.98675537109375,0.07183837890625,-0.02777099609375,-0.1429443359375,100797.21875,25.227630615234375,55168.0
-1.3200000524520874,-0.019999999552965164,13.020000457763672,7.875,-34.0,-45.6875,-13.25,-17.1875,14.125,0.36000001430511475,1.440000057220459,9.6899995803833,0.987060546875,0.06988525390625,-0.033203125,-0.14044189453125,100797.640625,25.229055404663086,55208.0
0.019999999552965164,0.05999999865889549,9.199999809265137,7.875,-34.0,-45.6875,30.9375,-31.4375,6.125,0.550000011920929,1.5199999809265137,9.670000076293945,0.98602294921875,0.0802001953125,-0.0455322265625,-0.1387939453125,100797.640625,25.22780990600586,55248.0
1.5,4.21999979019165,7.320000171661377,6.75,-32.1875,-46.0625,46.0625,-26.0,7.3125,0.75,1.8300000429153442,9.600000381469727,0.98468017578125,0.0931396484375,-0.058349609375,-0.1353759765625,100797.03125,25.225736618041992,55288.0
0.5699999928474426,3.609999895095825,6.960000038146973,5.0,-34.375,-45.25,13.8125,-28.125,11.625,0.9200000166893005,1.9700000286102295,9.5600004196167,0.98431396484375,0.0933837890625,-0.06964111328125,-0.13226318359375,100796.2109375,25.224166870117188,55328.0
1.8200000524520874,3.259999990463257,7.559999942779541,3.1875,-35.1875,-44.5625,-6.1875,-33.5625,12.625,1.159999966621399,1.9700000286102295,9.529999732971191,0.98443603515625,0.0882568359375,-0.08013916015625,-0.129150390625,100796.5,25.2247257232666,55368.0
1.909999966621399,1.9600000381469727,8.869999885559082,0.25,-36.5625,-45.0625,-13.75,-28.375,12.9375,1.3700000047683716,1.8799999952316284,9.520000457763672,0.9844970703125,0.0838623046875,-0.0869140625,-0.126953125,100796.5390625,25.22515869140625,55408.0
2.2300000190734863,1.399999976158142,9.020000457763672,0.25,-36.5625,-45.0625,-5.5625,-27.5625,8.5625,1.559999942779541,1.7999999523162842,9.510000228881836,0.984130859375,0.080810546875,-0.09588623046875,-0.12530517578125,100796.515625,25.227773666381836,55448.0
2.5399999618530273,1.6699999570846558,9.039999961853027,-1.1875,-36.25,-44.5,-1.3125,-22.6875,1.5625,1.7200000286102295,1.7799999713897705,9.479999542236328,0.9835205078125,0.079345703125,-0.10296630859375,-0.1256103515625,100797.109375,25.229740142822266,55488.0
2.940000057220459,1.7799999713897705,8.90999984741211,-2.6875,-36.6875,-45.0625,-6.4375,-10.0,-2.875,1.8200000524520874,1.7599999904632568,9.470000267028809,0.98333740234375,0.0765380859375,-0.10516357421875,-0.12701416015625,100796.9140625,25.228910446166992,55528.0
2.309999942779541,1.3700000047683716,8.8100004196167,-3.0,-35.6875,-45.75,-14.4375,4.875,-1.1875,1.8200000524520874,1.690000057220459,9.479999542236328,0.98388671875,0.07171630859375,-0.102783203125,-0.12762451171875,100796.734375,25.22770118713379,55568.0
1.5399999618530273,0.5099999904632568,8.579999923706055,-4.5,-36.0625,-45.875,-19.0625,5.875,2.75,1.7799999713897705,1.5700000524520874,9.510000228881836,0.984619140625,0.06585693359375,-0.10040283203125,-0.12713623046875,100796.5,25.22737693786621,55608.0
1.9900000095367432,0.18000000715255737,9.020000457763672,-4.5,-36.0625,-45.875,-13.5625,2.0625,3.3125,1.7599999904632568,1.4700000286102295,9.529999732971191,0.98504638671875,0.0616455078125,-0.09912109375,-0.1265869140625,100796.1328125,25.227142333984375,55648.0
2.6700000762939453,0.1899999976158142,9.449999809265137,-3.0,-35.0625,-45.5625,-4.0,5.5,-0.1875,1.7400000095367432,1.409999966621399,9.539999961853027,0.98529052734375,0.060791015625,-0.0968017578125,-0.1268310546875,100796.1484375,25.228116989135742,55688.0
2.950000047683716,0.7400000095367432,9.609999656677246,-3.6875,-35.0625,-46.375,0.0625,13.25,-6.5625,1.6699999570846558,1.409999966621399,9.550000190734863,0.9854736328125,0.0615234375,-0.09173583984375,-0.1290283203125,100796.265625,25.22710609436035,55728.0
2.680000066757202,1.0,11.09000015258789,-3.375,-35.75,-45.6875,-5.875,21.875,-11.8125,1.5399999618530273,1.409999966621399,9.579999923706055,0.98565673828125,0.06085205078125,-0.0838623046875,-0.1329345703125,100796.078125,25.225772857666016,55768.0
2.5899999141693115,0.5799999833106995,11.260000228881836,-3.0,-35.0625,-45.1875,-2.0625,25.375,-17.75,1.3700000047683716,1.3899999856948853,9.600000381469727,0.985595703125,0.0621337890625,-0.07476806640625,-0.13848876953125,100796.109375,25.225934982299805,55808.0
1.75,0.8500000238418579,11.319999694824219,-3.0,-35.0625,-45.1875,3.9375,29.8125,-19.5625,1.1699999570846558,1.4199999570846558,9.630000114440918,0.9852294921875,0.06585693359375,-0.06475830078125,-0.1444091796875,100796.6640625,25.227214813232422,55848.0
0.75,1.809999942779541,12.260000228881836,-1.5,-35.0,-44.875,11.8125,27.0625,-23.0,0.9599999785423279,1.4900000095367432,9.640000343322754,0.9842529296875,0.07147216796875,-0.0562744140625,-0.1514892578125,100796.5546875,25.2264404296875,55888.0
0.10999999940395355,1.6699999570846558,10.210000038146973,-0.0625,-35.375,-45.0625,21.8125,17.3125,-28.5,0.7900000214576721,1.6100000143051147,9.630000114440918,0.98248291015625,0.08026123046875,-0.05096435546875,-0.1602783203125,100796.171875,25.226421356201172,55928.0
-0.03999999910593033,3.5299999713897705,8.239999771118164,2.5,-35.6875,-44.75,18.5625,17.875,-30.9375,0.6499999761581421,1.7799999713897705,9.619999885559082,0.980712890625,0.0865478515625,-0.04461669921875,-0.16961669921875,100795.859375,25.225845336914062,55968.0
-0.6399999856948853,3.0299999713897705,8.0,2.75,-36.75,-43.5625,-7.8125,22.8125,-27.5,0.4699999988079071,1.7899999618530273,9.619999885559082,0.9796142578125,0.0858154296875,-0.03564453125,-0.17803955078125,100795.6640625,25.225988388061523,56008.0
-1.5299999713897705,2.2799999713897705,8.170000076293945,2.75,-36.75,-43.5625,-11.875,24.0,-23.1875,0.28999999165534973,1.7300000190734863,9.640000343322754,0.97882080078125,0.08343505859375,-0.02667236328125,-0.18499755859375,100796.015625,25.226097106933594,56048.0
-1.840000033378601,1.6799999475479126,8.949999809265137,4.5625,-37.1875,-43.875,-12.5,15.375,-18.5,0.14000000059604645,1.649999976158142,9.65999984741211,0.9781494140625,0.08050537109375,-0.02069091796875,-0.19061279296875,100795.9921875,25.22501564025879,56088.0
-1.7100000381469727,1.1799999475479126,9.569999694824219,6.75,-36.5,-43.375,-6.875,8.625,-12.0625,0.05000000074505806,1.590000033378601,9.670000076293945,0.97760009765625,0.0792236328125,-0.0174560546875,-0.19415283203125,100795.828125,25.22537612915039,56128.0
-2.2699999809265137,1.2200000286102295,9.489999771118164,6.75,-36.0,-43.75,0.8125,-1.0,-5.6875,0.019999999552965164,1.5800000429153442,9.670000076293945,0.97723388671875,0.07928466796875,-0.0184326171875,-0.1959228515625,100795.5703125,25.22447395324707,56168.0
-2.1600000858306885,1.3799999952316284,9.140000343322754,6.75,-36.0,-43.75,-1.375,-17.625,-0.625,0.09000000357627869,1.5800000429153442,9.670000076293945,0.97711181640625,0.07745361328125,-0.02471923828125,-0.196533203125,100795.328125,25.224960327148438,56208.0
-1.2200000286102295,0.9800000190734863,8.869999885559082,7.875,-35.5625,-42.875,-3.875,-30.5625,1.875,0.27000001072883606,1.559999942779541,9.670000076293945,0.97705078125,0.0740966796875,-0.03472900390625,-0.19677734375,100795.015625,25.224166870117188,56248.0
-0.05999999865889549,0.49000000953674316,8.850000381469727,6.875,-36.25,-43.25,-2.875,-32.3125,0.625,0.47999998927116394,1.5399999618530273,9.670000076293945,0.9766845703125,0.0711669921875,-0.0447998046875,-0.19744873046875,100795.0625,25.224149703979492,56288.0
0.7400000095367432,0.2800000011920929,8.989999771118164,4.6875,-35.5625,-43.5625,-0.25,-22.25,-1.375,0.6499999761581421,1.5299999713897705,9.65999984741211,0.97625732421875,0.06982421875,-0.0516357421875,-0.198486328125,100795.3046875,25.225284576416016,56328.0
0.550000011920929,0.12999999523162842,9.039999961853027,4.0,-35.5625,-42.75,3.0625,-14.3125,-2.6875,0.75,1.5099999904632568,9.65999984741211,0.97613525390625,0.06707763671875,-0.05426025390625,-0.19940185546875,100795.109375,25.22499656677246,56368.0
0.07999999821186066,0.41999998688697815,9.220000267028809,4.0,-35.5625,-42.75,11.75,-7.3125,-0.75,0.7900000214576721,1.5299999713897705,9.649999618530273,0.97576904296875,0.0712890625,-0.05718994140625,-0.1988525390625,100794.84375,25.225934982299805,56408.0
-0.1899999976158142,1.3200000524520874,10.010000228881836,2.5625,-36.5625,-43.1875,12.6875,-3.0625,7.25,0.8299999833106995,1.6200000047683716,9.630000114440918,0.9759521484375,0.0748291015625,-0.05914306640625,-0.19598388671875,100795.3125,25.228351593017578,56448.0
-0.5899999737739563,1.3899999856948853,10.930000305175781,2.5,-36.1875,-42.0,7.125,-3.8125,13.125,0.8600000143051147,1.6699999570846558,9.619999885559082,0.9765625,0.0765380859375,-0.0615234375,-0.191650390625,100795.0625,25.22786521911621,56488.0
-0.3499999940395355,1.9299999475479126,11.739999771118164,2.75,-37.25,-42.5,1.625,-10.375,12.75,0.9200000166893005,1.7000000476837158,9.609999656677246,0.97705078125,0.07598876953125,-0.0655517578125,-0.1878662109375,100794.359375,25.225772857666016,56528.0
0.07000000029802322,1.590000033378601,12.479999542236328,1.0,-37.0625,-40.1875,-0.4375,-15.9375,9.3125,1.0,1.690000057220459,9.600000381469727,0.97705078125,0.0745849609375,-0.07232666015625,-0.1859130859375,100794.4609375,25.224781036376953,56568.0
1.149999976158142,2.0,11.979999542236328,1.0,-37.0625,-40.1875,0.25,-23.5,4.6875,1.149999976158142,1.690000057220459,9.59000015258789,0.9766845703125,0.07257080078125,-0.0802001953125,-0.185546875,100794.6796875,25.225194931030273,56608.0
1.8700000047683716,1.590000033378601,10.850000381469727,0.5625,-37.75,-41.0,-0.625,-22.9375,-2.6875,1.340000033378601,1.6699999570846558,9.5600004196167,0.975830078125,0.07177734375,-0.08734130859375,-0.1871337890625,100794.1328125,25.224924087524414,56648.0
2.609999895095825,1.6699999570846558,8.539999961853027,0.5625,-37.375,-41.375,14.8125,-9.5625,-6.625,1.440000057220459,1.7300000190734863,9.539999961853027,0.974853515625,0.0767822265625,-0.09027099609375,-0.18878173828125,100794.578125,25.225862503051758,56688.0
1.7699999809265137,3.2799999713897705,8.010000228881836,-0.5,-37.75,-40.6875,18.75,7.75,-2.9375,1.409999966621399,1.850000023841858,9.520000457763672,0.97491455078125,0.08172607421875,-0.08740234375,-0.187744140625,100795.046875,25.227161407470703,56728.0
0.9200000166893005,2.609999895095825,7.320000171661377,-1.875,-38.5,-39.875,8.3125,12.9375,7.375,1.350000023841858,1.8899999856948853,9.520000457763672,0.9754638671875,0.08416748046875,-0.08489990234375,-0.1849365234375,100795.1640625,25.22638511657715,56768.0
0.7599999904632568,2.7799999713897705,7.489999771118164,-1.875,-38.5,-39.875,4.3125,11.875,16.875,1.2899999618530273,1.9199999570846558,9.520000457763672,0.97674560546875,0.0855712890625,-0.08184814453125,-0.17864990234375,100794.28125,25.225826263427734,56808.0
0.6299999952316284,2.390000104904175,8.850000381469727,-0.0625,-38.875,-39.5625,-1.125,7.1875,22.9375,1.25,1.899999976158142,9.529999732971191,0.97869873046875,0.0845947265625,-0.0804443359375,-0.1688232421875,100794.3515625,25.22712516784668,56848.0
0.75,1.6799999475479126,9.289999961853027,-1.875,-39.5625,-38.75,0.875,-1.5625,24.0625,1.2799999713897705,1.8799999952316284,9.529999732971191,0.97967529296875,0.08526611328125,-0.08319091796875,-0.161376953125,100794.71875,25.22579002380371,56888.0
1.5,1.9900000095367432,9.180000305175781,-3.375,-39.25,-38.0625,8.25,-10.5,18.5625,1.3700000047683716,1.9199999570846558,9.510000228881836,0.97991943359375,0.08697509765625,-0.08758544921875,-0.156494140625,100794.28125,25.221912384033203,56928.0
1.75,2.119999885559082,8.75,-4.5,-38.5625,-38.1875,6.625,-8.75,8.4375,1.4299999475479126,1.940000057220459,9.5,0.97991943359375,0.0877685546875,-0.0897216796875,-0.15509033203125,100794.9453125,25.222454071044922,56968.0
1.5499999523162842,1.8300000429153442,8.819999694824219,-4.5,-38.5625,-38.1875,-0.6875,-3.1875,-1.75,1.4600000381469727,1.9600000381469727,9.489999771118164,0.979736328125,0.087158203125,-0.0904541015625,-0.1561279296875,100794.9375,25.223445892333984,57008.0
1.0499999523162842,1.2100000381469727,8.699999809265137,-4.875,-39.375,-37.75,-5.9375,-2.1875,-5.6875,1.4700000286102295,1.9199999570846558,9.5,0.9794921875,0.08514404296875,-0.09112548828125,-0.158203125,100794.2109375,25.224185943603516,57048.0
1.75,0.8600000143051147,9.0600004196167,-4.5,-39.0,-38.6875,-5.4375,-8.0625,-3.375,1.5,1.899999976158142,9.5,0.9791259765625,0.0831298828125,-0.0941162109375,-0.15985107421875,100794.453125,25.22532081604004,57088.0
2.309999942779541,0.9800000190734863,9.449999809265137,-3.6875,-39.375,-37.875,-0.25,-9.9375,-2.375,1.559999942779541,1.8899999856948853,9.489999771118164,0.97869873046875,0.0830078125,-0.0966796875,-0.16082763671875,100794.2734375,25.2278995513916,57128.0
2.8499999046325684,1.2599999904632568,9.550000190734863,-5.875,-38.25,-38.6875,1.8125,-8.6875,-5.6875,1.6200000047683716,1.899999976158142,9.479999542236328,0.97802734375,0.0833740234375,-0.09930419921875,-0.16314697265625,100793.4296875,25.226943969726562,57168.0
3.3499999046325684,1.7100000381469727,9.729999542236328,-5.875,-38.25,-38.6875,0.625,-4.6875,-13.125,1.6399999856948853,1.9199999570846558,9.470000267028809,0.9771728515625,0.08349609375,-0.0997314453125,-0.16802978515625,100792.953125,25.22393226623535,57208.0
3.2300000190734863,1.7400000095367432,9.779999732971191,-4.5,-39.6875,-37.875,-10.0,10.25,-18.0,1.590000033378601,1.909999966621399,9.479999542236328,0.97686767578125,0.0811767578125,-0.0947265625,-0.173828125,100793.6171875,25.223392486572266,57248.0
2.3399999141693115,1.2599999904632568,10.319999694824219,-4.875,-39.0,-37.5,-14.875,22.1875,-11.6875,1.4600000381469727,1.8300000429153442,9.520000457763672,0.977294921875,0.0780029296875,-0.086181640625,-0.17706298828125,100793.890625,25.22184181213379,57288.0
1.4199999570846558,1.159999966621399,10.5600004196167,-3.6875,-38.25,-37.5625,-14.5,23.0,-3.8125,1.2999999523162842,1.7400000095367432,9.5600004196167,0.97808837890625,0.0748291015625,-0.07781982421875,-0.1781005859375,100794.1484375,25.22066879272461,57328.0
1.090000033378601,1.2999999523162842,11.3100004196167,-3.375,-37.5,-37.25,-9.8125,17.75,-3.6875,1.159999966621399,1.6699999570846558,9.59000015258789,0.97845458984375,0.07281494140625,-0.0716552734375,-0.1795654296875,100794.34375,25.221534729003906,57368.0
0.949999988079071,1.2300000190734863,10.979999542236328,-3.375,-37.5,-37.25,-11.0,10.4375,-13.625,1.0700000524520874,1.6200000047683716,9.609999656677246,0.9779052734375,0.0709228515625,-0.06756591796875,-0.18463134765625,100794.3125,25.222183227539062,57408.0
0.5199999809265137,1.7899999618530273,10.079999923706055,-2.6875,-37.875,-38.375,-0.875,6.875,-27.3125,1.0,1.600000023841858,9.619999885559082,0.97625732421875,0.0716552734375,-0.06475830078125,-0.19390869140625,100794.0703125,25.222652435302734,57448.0
-0.23000000417232513,2.6500000953674316,8.850000381469727,-1.875,-37.1875,-37.875,-1.6875,0.875,-36.1875,0.9399999976158142,1.6200000047683716,9.619999885559082,0.97381591796875,0.07110595703125,-0.0638427734375,-0.20623779296875,100793.1796875,25.22012710571289,57488.0
0.33000001311302185,1.4600000381469727,8.020000457763672,-1.5,-37.875,-37.5,-8.625,-8.75,-44.75,0.9300000071525574,1.590000033378601,9.619999885559082,0.97052001953125,0.0692138671875,-0.064697265625,-0.22149658203125,100793.4296875,25.221118927001953,57528.0
0.8100000023841858,1.2699999809265137,8.680000305175781,-0.5,-36.375,-38.5625,1.25,2.0625,-49.4375,0.8999999761581421,1.6100000143051147,9.630000114440918,0.96673583984375,0.071533203125,-0.06268310546875,-0.23748779296875,100793.0234375,25.220722198486328,57568.0
-0.05999999865889549,1.7200000286102295,9.109999656677246,-0.5,-36.375,-38.5625,10.5,10.0625,-48.0625,0.7900000214576721,1.690000057220459,9.619999885559082,0.9627685546875,0.07672119140625,-0.05908203125,-0.25244140625,100792.5,25.219839096069336,57608.0
-0.3199999928474426,1.9500000476837158,9.170000076293945,0.5625,-36.75,-38.1875,11.125,10.5625,-40.5625,0.6700000166893005,1.7799999713897705,9.609999656677246,0.959228515625,0.081787109375,-0.055419921875,-0.26470947265625,100792.7109375,25.220325469970703,57648.0
-0.699999988079071,2.059999942779541,8.75,2.5,-36.6875,-37.0625,3.4375,12.625,-27.875,0.550000011920929,1.840000033378601,9.609999656677246,0.95703125,0.08404541015625,-0.0509033203125,-0.2728271484375,100792.9453125,25.220109939575195,57688.0
-1.059999942779541,1.5499999523162842,8.739999771118164,5.0625,-36.25,-37.25,-4.8125,7.3125,-15.375,0.46000000834465027,1.8300000429153442,9.619999885559082,0.9559326171875,0.0831298828125,-0.0479736328125,-0.27740478515625,100793.15625,25.221118927001953,57728.0
-0.5699999928474426,1.25,8.670000076293945,5.0625,-36.6875,-36.5625,-9.0,0.125,-7.9375,0.4399999976158142,1.7899999618530273,9.630000114440918,0.95550537109375,0.080078125,-0.0467529296875,-0.280029296875,100793.0234375,25.220705032348633,57768.0
-0.23999999463558197,0.7099999785423279,9.0600004196167,5.0625,-36.6875,-36.5625,-13.8125,1.5,-4.6875,0.41999998688697815,1.7100000381469727,9.640000343322754,0.9554443359375,0.07611083984375,-0.04486083984375,-0.28173828125,100793.171875,25.220975875854492,57808.0
-0.4000000059604645,0.0,9.279999732971191,5.5,-35.5625,-37.25,-6.5625,1.375,-5.3125,0.4099999964237213,1.6399999856948853,9.649999618530273,0.95501708984375,0.07476806640625,-0.0439453125,-0.28363037109375,100793.1484375,25.220596313476562,57848.0
-0.4300000071525574,-0.09000000357627869,9.350000381469727,5.5,-35.25,-37.6875,8.0,-0.375,-7.3125,0.4000000059604645,1.659999966621399,9.649999618530273,0.9541015625,0.0777587890625,-0.04461669921875,-0.28582763671875,100792.6328125,25.21917152404785,57888.0
-0.6800000071525574,0.6499999761581421,9.289999961853027,5.5,-35.5625,-36.0,14.4375,-0.375,-6.125,0.38999998569488525,1.75,9.640000343322754,0.95318603515625,0.08203125,-0.04595947265625,-0.28741455078125,100792.59375,25.21982192993164,57928.0
-0.7200000286102295,1.659999966621399,9.5,6.5625,-35.1875,-36.375,5.1875,-1.6875,-1.5,0.4000000059604645,1.809999942779541,9.619999885559082,0.95294189453125,0.0830078125,-0.0467529296875,-0.28778076171875,100792.4453125,25.217439651489258,57968.0
-0.800000011920929,1.6399999856948853,10.520000457763672,6.5625,-35.1875,-36.375,-7.75,-0.625,2.375,0.4000000059604645,1.7899999618530273,9.630000114440918,0.95343017578125,0.0804443359375,-0.04644775390625,-0.2869873046875,100793.0546875,25.218523025512695,58008.0
-0.9800000190734863,1.5399999618530273,11.789999961853027,5.0625,-35.25,-36.0,-6.625,-3.75,5.25,0.41999998688697815,1.7400000095367432,9.640000343322754,0.9541015625,0.07769775390625,-0.04736328125,-0.285400390625,100792.8203125,25.216447830200195,58048.0
-0.27000001072883606,3.5999999046325684,15.3100004196167,5.5,-35.1875,-35.6875,-17.25,-7.625,8.0625,0.47999998927116394,1.6699999570846558,9.649999618530273,0.955322265625,0.06878662109375,-0.0474853515625,-0.283447265625,100793.140625,25.217205047607422,58088.0
-0.8500000238418579,-0.5400000214576721,12.180000305175781,3.75,-34.0,-36.0,-22.5,-18.625,2.6875,0.550000011920929,1.4500000476837158,9.680000305175781,0.9554443359375,0.062255859375,-0.0523681640625,-0.2838134765625,100793.5078125,25.218360900878906,58128.0
1.1799999475479126,-0.15000000596046448,9.329999923706055,3.75,-34.0,-36.0,24.9375,-23.0625,-6.25,0.699999988079071,1.559999942779541,9.649999618530273,0.95330810546875,0.0745849609375,-0.06268310546875,-0.2857666015625,100792.90625,25.216917037963867,58168.0
1.4299999475479126,5.809999942779541,7.28000020980835,4.0625,-33.6875,-37.5625,25.3125,-5.625,-5.0625,0.7699999809265137,1.8600000143051147,9.59000015258789,0.9522705078125,0.08056640625,-0.0660400390625,-0.286865234375,100792.59375,25.215816497802734,58208.0
0.7699999809265137,2.990000009536743,7.809999942779541,2.6875,-34.75,-36.875,-6.75,3.3125,0.5,0.7699999809265137,1.850000023841858,9.59000015258789,0.95263671875,0.07891845703125,-0.06402587890625,-0.28662109375,100792.046875,25.213851928710938,58248.0
0.11999999731779099,1.809999942779541,8.609999656677246,2.25,-34.375,-36.875,-4.4375,9.625,4.0625,0.7200000286102295,1.809999942779541,9.600000381469727,0.95330810546875,0.0787353515625,-0.06109619140625,-0.28515625,100791.59375,25.21352767944336,58288.0
-0.6700000166893005,1.5199999809265137,9.539999961853027,2.25,-34.0,-36.375,2.9375,2.6875,3.25,0.699999988079071,1.8200000524520874,9.600000381469727,0.95330810546875,0.08013916015625,-0.0621337890625,-0.2845458984375,100791.890625,25.213293075561523,58328.0
0.1599999964237213,1.8899999856948853,8.899999618530273,2.25,-34.0,-36.375,8.0,-5.6875,-1.4375,0.7200000286102295,1.850000023841858,9.600000381469727,0.9527587890625,0.0816650390625,-0.06402587890625,-0.28533935546875,100792.1640625,25.21368980407715,58368.0
0.05999999865889549,1.7300000190734863,8.399999618530273,1.5625,-33.6875,-36.0,-1.3125,-0.0625,-3.6875,0.7300000190734863,1.8799999952316284,9.59000015258789,0.9525146484375,0.0809326171875,-0.06378173828125,-0.2864990234375,100791.9296875,25.21339988708496,58408.0
-0.2800000011920929,1.0199999809265137,8.260000228881836,2.6875,-34.375,-36.5,-7.375,-0.75,-2.375,0.7300000190734863,1.840000033378601,9.600000381469727,0.9525146484375,0.07830810546875,-0.06329345703125,-0.287353515625,100791.9296875,25.21260643005371,58448.0
-0.11999999731779099,0.5600000023841858,8.529999732971191,3.375,-34.0,-36.875,-10.3125,-3.375,0.5,0.75,1.7799999713897705,9.609999656677246,0.9527587890625,0.07464599609375,-0.06353759765625,-0.28741455078125,100791.8671875,25.213184356689453,58488.0
0.27000001072883606,0.20999999344348907,9.149999618530273,2.6875,-34.375,-36.0,-9.5625,-5.6875,2.6875,0.7699999809265137,1.7300000190734863,9.619999885559082,0.953125,0.07122802734375,-0.06500244140625,-0.2867431640625,100791.2890625,25.21071434020996,58528.0
0.7799999713897705,-0.11999999731779099,9.789999961853027,2.6875,-34.375,-36.0,-4.3125,-8.75,3.125,0.8199999928474426,1.690000057220459,9.619999885559082,0.95318603515625,0.070068359375,-0.0672607421875,-0.2862548828125,100791.140625,25.21060562133789,58568.0
1.7200000286102295,0.25,9.789999961853027,1.1875,-33.0,-36.375,5.625,-9.0,1.1875,0.8999999761581421,1.7100000381469727,9.609999656677246,0.952880859375,0.0721435546875,-0.07110595703125,-0.2860107421875,100790.9453125,25.21051597595215,58608.0
1.7899999618530273,1.0399999618530273,10.220000267028809,0.0625,-33.0,-36.5,10.5,-2.75,-0.875,0.9300000071525574,1.7799999713897705,9.59000015258789,0.952392578125,0.075439453125,-0.072509765625,-0.28631591796875,100791.3828125,25.20928955078125,58648.0
1.8600000143051147,1.440000057220459,10.899999618530273,1.1875,-33.25,-36.0625,8.375,0.625,-2.875,0.9200000166893005,1.840000033378601,9.579999923706055,0.951904296875,0.07830810546875,-0.0726318359375,-0.28729248046875,100791.7109375,25.20896339416504,58688.0
2.0,1.909999966621399,11.329999923706055,0.0625,-33.0,-37.0,8.5625,4.5,-4.6875,0.8999999761581421,1.8799999952316284,9.579999923706055,0.95147705078125,0.080810546875,-0.071533203125,-0.2882080078125,100791.78125,25.206979751586914,58728.0
1.340000033378601,2.6500000953674316,11.479999542236328,0.0625,-33.0,-37.0,5.5625,10.5,-5.1875,0.8399999737739563,1.9299999475479126,9.569999694824219,0.9510498046875,0.083251953125,-0.068359375,-0.28955078125,100791.2578125,25.20721435546875,58768.0
0.8500000238418579,2.7200000286102295,12.010000228881836,0.75,-33.25,-36.5,-9.5625,11.5625,-7.5625,0.7400000095367432,1.8899999856948853,9.59000015258789,0.9508056640625,0.0811767578125,-0.0635986328125,-0.2921142578125,100791.609375,25.20970344543457,58808.0
0.25999999046325684,1.2699999809265137,10.119999885559082,0.5,-33.25,-36.5625,-6.25,10.25,-11.4375,0.6499999761581421,1.850000023841858,9.600000381469727,0.949951171875,0.08160400390625,-0.0595703125,-0.29547119140625,100791.4765625,25.211578369140625,58848.0
-0.9599999785423279,2.7899999618530273,8.75,1.875,-32.1875,-36.5,22.1875,8.4375,-9.625,0.5899999737739563,1.9199999570846558,9.59000015258789,0.9486083984375,0.08905029296875,-0.05926513671875,-0.29779052734375,100790.875,25.21123695373535,58888.0
-0.2199999988079071,2.8399999141693115,7.760000228881836,1.5625,-33.0,-35.25,16.3125,-1.5625,-5.75,0.5799999833106995,2.059999942779541,9.569999694824219,0.947509765625,0.09417724609375,-0.06121826171875,-0.2994384765625,100791.1796875,25.212156295776367,58928.0
0.27000001072883606,2.490000009536743,8.380000114440918,1.5625,-33.0,-35.25,12.3125,-0.3125,-7.1875,0.5799999833106995,2.1500000953674316,9.539999961853027,0.9462890625,0.09857177734375,-0.06207275390625,-0.301513671875,100791.5859375,25.211091995239258,58968.0
-0.25999999046325684,2.7300000190734863,8.819999694824219,0.0625,-33.25,-35.0,15.625,5.75,-9.5,0.5400000214576721,2.240000009536743,9.529999732971191,0.944580078125,0.10528564453125,-0.0614013671875,-0.30474853515625,100791.5390625,25.210317611694336,59008.0
-0.5400000214576721,2.7200000286102295,8.579999923706055,1.5625,-33.0,-35.1875,10.1875,3.875,-9.4375,0.49000000953674316,2.3299999237060547,9.510000228881836,0.9437255859375,0.10748291015625,-0.06109619140625,-0.3067626953125,100791.40625,25.206836700439453,59048.0
-0.33000001311302185,2.0899999141693115,8.390000343322754,2.25,-34.0,-35.875,-0.75,-2.3125,-8.6875,0.47999998927116394,2.3499999046325684,9.5,0.94281005859375,0.10687255859375,-0.0615234375,-0.30963134765625,100791.515625,25.205951690673828,59088.0
0.33000001311302185,1.5199999809265137,8.289999961853027,1.875,-33.25,-35.1875,-5.9375,-4.4375,-7.6875,0.49000000953674316,2.3299999237060547,9.510000228881836,0.942138671875,0.10467529296875,-0.06182861328125,-0.31231689453125,100791.6328125,25.205303192138672,59128.0
0.23999999463558197,1.25,8.65999984741211,1.875,-33.25,-35.1875,-8.9375,-1.4375,-6.5,0.5,2.2799999713897705,9.520000457763672,0.9417724609375,0.10174560546875,-0.06097412109375,-0.31463623046875,100791.6875,25.20537567138672,59168.0
0.12999999523162842,0.8700000047683716,9.289999961853027,1.1875,-33.25,-35.0,-11.4375,0.5,-4.5625,0.49000000953674316,2.2100000381469727,9.529999732971191,0.94171142578125,0.0982666015625,-0.0594482421875,-0.31622314453125,100792.0390625,25.207178115844727,59208.0
-0.1599999964237213,0.4399999976158142,9.65999984741211,1.875,-32.0625,-35.75,-8.125,1.75,-2.5625,0.47999998927116394,2.1500000953674316,9.550000190734863,0.94171142578125,0.096435546875,-0.05810546875,-0.31707763671875,100792.171875,25.206222534179688,59248.0
-0.47999998927116394,0.7099999785423279,9.460000038146973,3.5,-31.375,-35.375,2.875,-0.9375,-0.9375,0.4699999988079071,2.140000104904175,9.550000190734863,0.94146728515625,0.09735107421875,-0.05889892578125,-0.3172607421875,100792.7421875,25.206079483032227,59288.0
-0.5400000214576721,1.4500000476837158,9.479999542236328,2.0,-32.0625,-34.875,7.0,-4.625,1.9375,0.49000000953674316,2.180000066757202,9.539999961853027,0.94146728515625,0.0986328125,-0.06109619140625,-0.31646728515625,100792.6640625,25.204816818237305,59328.0
-0.4399999976158142,2.180000066757202,10.630000114440918,2.0,-32.0625,-34.875,-2.3125,-6.5625,5.25,0.5400000214576721,2.190000057220459,9.539999961853027,0.9420166015625,0.0965576171875,-0.06298828125,-0.3150634765625,100792.03125,25.20270538330078,59368.0
-0.33000001311302185,1.7899999618530273,11.470000267028809,2.375,-31.375,-36.0625,-9.625,-8.5,3.9375,0.5899999737739563,2.140000104904175,9.550000190734863,0.9425048828125,0.09259033203125,-0.06475830078125,-0.314453125,100792.140625,25.20113754272461,59408.0
0.05000000074505806,2.2300000190734863,12.59000015258789,2.0,-31.375,-35.6875,-10.5625,-7.5,1.125,0.6499999761581421,2.069999933242798,9.5600004196167,0.94281005859375,0.08819580078125,-0.06610107421875,-0.3145751953125,100792.21875,25.199947357177734,59448.0
0.1599999964237213,1.7300000190734863,12.609999656677246,1.6875,-31.375,-37.25,-27.4375,-5.25,0.9375,0.6899999976158142,1.9600000381469727,9.579999923706055,0.94342041015625,0.07958984375,-0.06561279296875,-0.31512451171875,100792.0546875,25.19964027404785,59488.0
0.2800000011920929,0.3700000047683716,10.949999809265137,1.25,-30.25,-36.875,-6.375,-15.0,-2.875,0.7599999904632568,1.840000033378601,9.600000381469727,0.942626953125,0.0780029296875,-0.07049560546875,-0.31683349609375,100791.9296875,25.198829650878906,59528.0
1.7400000095367432,3.069999933242798,8.300000190734863,1.25,-30.25,-36.875,36.25,-18.9375,-10.375,0.8700000047683716,1.9900000095367432,9.5600004196167,0.940185546875,0.08624267578125,-0.07891845703125,-0.31988525390625,100791.734375,25.19821548461914,59568.0
1.9299999475479126,3.7300000190734863,7.260000228881836,-0.1875,-30.6875,-35.6875,8.125,-3.875,-10.625,0.9200000166893005,2.119999885559082,9.520000457763672,0.9388427734375,0.08843994140625,-0.080078125,-0.322998046875,100791.171875,25.19545555114746,59608.0
1.4299999475479126,2.5,7.690000057220459,0.1875,-31.0625,-37.0,-1.0,9.1875,-5.3125,0.8799999952316284,2.130000114440918,9.529999732971191,0.9385986328125,0.0899658203125,-0.07684326171875,-0.3240966796875,100790.9921875,25.194536209106445,59648.0
0.20999999344348907,1.690000057220459,8.479999542236328,2.0,-30.6875,-36.5625,11.9375,11.875,1.6875,0.800000011920929,2.1700000762939453,9.520000457763672,0.93865966796875,0.095458984375,-0.07525634765625,-0.32269287109375,100790.890625,25.194427490234375,59688.0
0.029999999329447746,1.909999966621399,9.119999885559082,0.875,-31.6875,-36.6875,25.375,0.0625,6.0,0.7799999713897705,2.309999942779541,9.489999771118164,0.9384765625,0.10357666015625,-0.078125,-0.32000732421875,100790.9609375,25.194337844848633,59728.0
0.800000011920929,2.940000057220459,8.569999694824219,0.875,-31.6875,-36.6875,24.6875,1.8125,7.0625,0.7799999713897705,2.4700000286102295,9.449999809265137,0.9384765625,0.11083984375,-0.08001708984375,-0.31707763671875,100791.3359375,25.194284439086914,59768.0
0.6200000047683716,3.119999885559082,8.449999809265137,0.5625,-32.0625,-35.5,8.8125,5.25,6.5,0.7699999809265137,2.569999933242798,9.430000305175781,0.9390869140625,0.1134033203125,-0.079345703125,-0.31463623046875,100791.7578125,25.194229125976562,59808.0
0.5699999928474426,2.4100000858306885,8.199999809265137,1.25,-32.5,-34.6875,-5.9375,5.625,5.875,0.7400000095367432,2.559999942779541,9.430000305175781,0.94012451171875,0.111572265625,-0.07696533203125,-0.312744140625,100791.78125,25.19477081298828,59848.0
0.46000000834465027,1.2599999904632568,8.510000228881836,0.875,-33.1875,-35.375,-11.6875,4.75,4.875,0.7200000286102295,2.4800000190734863,9.449999809265137,0.941162109375,0.10845947265625,-0.07452392578125,-0.311279296875,100791.8125,25.195186614990234,59888.0
0.7699999809265137,0.9700000286102295,8.979999542236328,0.875,-33.1875,-35.375,-6.75,5.625,5.25,0.6899999976158142,2.430000066757202,9.470000267028809,0.94207763671875,0.10699462890625,-0.072265625,-0.3095703125,100791.9296875,25.196069717407227,59928.0
0.6000000238418579,1.0,9.520000457763672,1.25,-31.6875,-35.6875,-1.0,4.625,4.6875,0.6700000166893005,2.4000000953674316,9.479999542236328,0.942626953125,0.10723876953125,-0.0709228515625,-0.30810546875,100791.984375,25.196142196655273,59968.0
0.75,1.409999966621399,9.59000015258789,0.875,-31.0625,-34.875,4.375,3.8125,1.25,0.6499999761581421,2.4200000762939453,9.479999542236328,0.94268798828125,0.108642578125,-0.070068359375,-0.3076171875,100791.4921875,25.195058822631836,60008.0
0.7799999713897705,2.059999942779541,10.180000305175781,1.25,-31.6875,-35.0,-3.0625,2.4375,-3.5,0.6200000047683716,2.4200000762939453,9.479999542236328,0.9423828125,0.1082763671875,-0.06890869140625,-0.30902099609375,100790.78125,25.19309425354004,60048.0
0.9700000286102295,2.2300000190734863,10.75,1.25,-32.0625,-36.0625,-0.1875,2.75,-8.375,0.5899999737739563,2.4200000762939453,9.479999542236328,0.94140625,0.1083984375,-0.06719970703125,-0.31231689453125,100791.09375,25.19334602355957,60088.0
0.5,2.950000047683716,10.9399995803833,1.25,-32.0625,-36.0625,-8.125,3.75,-14.3125,0.5600000023841858,2.4000000953674316,9.489999771118164,0.94024658203125,0.1048583984375,-0.06427001953125,-0.31744384765625,100790.40625,25.19121742248535,60128.0
0.3100000023841858,2.9200000762939453,12.300000190734863,2.0,-31.0625,-37.25,-21.75,0.6875,-17.375,0.5099999904632568,2.2699999809265137,9.520000457763672,0.93914794921875,0.0975341796875,-0.0609130859375,-0.3236083984375,100790.9140625,25.191940307617188,60168.0
-0.20000000298023224,1.6799999475479126,11.550000190734863,2.375,-30.25,-36.5,-25.9375,-4.875,-22.125,0.49000000953674316,2.0899999141693115,9.5600004196167,0.9373779296875,0.0897216796875,-0.0589599609375,-0.33135986328125,100790.6015625,25.188440322875977,60208.0
-0.25999999046325684,0.8999999761581421,10.760000228881836,2.0,-29.875,-36.875,-4.875,-4.625,-22.875,0.5,2.0,9.579999923706055,0.93475341796875,0.08935546875,-0.05975341796875,-0.33868408203125,100790.9296875,25.1881160736084,60248.0
-1.0800000429153442,2.5899999141693115,8.350000381469727,2.375,-29.5625,-37.25,14.375,-6.75,-21.6875,0.5,2.049999952316284,9.569999694824219,0.93170166015625,0.09112548828125,-0.0633544921875,-0.3458251953125,100790.5,25.18614959716797,60288.0
-0.009999999776482582,2.180000066757202,7.880000114440918,2.375,-29.5625,-37.25,-5.25,-13.0,-24.0625,0.550000011920929,2.0799999237060547,9.5600004196167,0.9285888671875,0.0887451171875,-0.0650634765625,-0.35443115234375,100790.234375,25.186403274536133,60328.0
-0.25999999046325684,1.2599999904632568,8.229999542236328,2.375,-29.875,-37.25,-1.875,-5.4375,-29.125,0.5600000023841858,2.069999933242798,9.5600004196167,0.92474365234375,0.09014892578125,-0.06591796875,-0.3638916015625,100790.2265625,25.186601638793945,60368.0
-0.49000000953674316,1.7899999618530273,9.020000457763672,2.75,-29.1875,-38.0625,9.5,-3.0,-30.0625,0.5400000214576721,2.140000104904175,9.550000190734863,0.92071533203125,0.0938720703125,-0.06744384765625,-0.37274169921875,100790.2890625,25.185014724731445,60408.0
-0.5400000214576721,1.9800000190734863,9.180000305175781,4.1875,-28.875,-38.0625,13.8125,-4.0625,-26.6875,0.5199999809265137,2.2300000190734863,9.529999732971191,0.9168701171875,0.0987548828125,-0.0684814453125,-0.38067626953125,100790.921875,25.184978485107422,60448.0
-0.4300000071525574,2.2200000286102295,9.050000190734863,4.5625,-28.5,-38.375,14.9375,-6.75,-23.6875,0.46000000834465027,2.309999942779541,9.510000228881836,0.9140625,0.10235595703125,-0.069580078125,-0.38623046875,100791.0625,25.183210372924805,60488.0
-0.3799999952316284,2.609999895095825,8.970000267028809,4.5625,-28.5,-38.375,9.6875,-8.8125,-22.4375,0.47999998927116394,2.4000000953674316,9.489999771118164,0.91058349609375,0.10430908203125,-0.07275390625,-0.393310546875,100791.5625,25.18478012084961,60528.0
-0.07999999821186066,2.2799999713897705,8.859999656677246,6.0625,-29.5625,-37.6875,1.1875,-10.75,-24.25,0.47999998927116394,2.430000066757202,9.479999542236328,0.90606689453125,0.1038818359375,-0.07354736328125,-0.40350341796875,100791.0703125,25.185375213623047,60568.0
0.09000000357627869,1.7300000190734863,8.739999771118164,4.875,-29.25,-36.875,-7.5,-5.0,-25.1875,0.4699999988079071,2.4000000953674316,9.489999771118164,0.903076171875,0.101318359375,-0.072265625,-0.41107177734375,100791.6015625,25.18582534790039,60608.0
-0.15000000596046448,1.090000033378601,8.710000038146973,5.25,-29.0,-37.6875,-10.125,1.4375,-20.375,0.4300000071525574,2.3399999141693115,9.510000228881836,0.9010009765625,0.0997314453125,-0.0694580078125,-0.41644287109375,100790.8046875,25.18328285217285,60648.0
-0.550000011920929,1.1399999856948853,8.710000038146973,6.0625,-27.6875,-38.875,-5.375,5.5,-11.4375,0.38999998569488525,2.319999933242798,9.510000228881836,0.9002685546875,0.09930419921875,-0.0673828125,-0.41845703125,100791.0390625,25.183679580688477,60688.0
-0.8600000143051147,0.9200000166893005,9.420000076293945,6.0625,-27.6875,-38.875,-4.375,7.5625,-2.0625,0.3499999940395355,2.2899999618530273,9.520000457763672,0.900390625,0.099609375,-0.064453125,-0.41864013671875,100791.0390625,25.181081771850586,60728.0
-1.6299999952316284,1.399999976158142,10.529999732971191,6.875,-27.6875,-37.6875,-0.9375,9.6875,3.8125,0.28999999165534973,2.2799999713897705,9.529999732971191,0.9014892578125,0.10064697265625,-0.0614013671875,-0.41644287109375,100790.4375,25.179712295532227,60768.0
-2.069999933242798,1.7599999904632568,11.300000190734863,6.5,-26.75,-38.5,0.4375,2.8125,7.4375,0.25999999046325684,2.2799999713897705,9.529999732971191,0.90228271484375,0.1004638671875,-0.06146240234375,-0.41473388671875,100790.703125,25.179855346679688,60808.0
-1.7699999809265137,2.259999990463257,11.989999771118164,6.875,-27.75,-38.375,-4.125,-8.3125,7.9375,0.28999999165534973,2.259999990463257,9.529999732971191,0.9034423828125,0.0972900390625,-0.0638427734375,-0.41265869140625,100790.859375,25.180522918701172,60848.0
-0.36000001430511475,3.059999942779541,13.449999809265137,7.1875,-26.375,-39.1875,-11.5625,-17.0625,7.875,0.4000000059604645,2.200000047683716,9.539999961853027,0.90460205078125,0.090087890625,-0.0670166015625,-0.4112548828125,100790.9140625,25.180452346801758,60888.0
-0.3199999928474426,1.2300000190734863,11.390000343322754,7.1875,-26.375,-39.1875,-23.6875,-15.9375,1.9375,0.5099999904632568,2.049999952316284,9.569999694824219,0.90484619140625,0.08123779296875,-0.06927490234375,-0.412109375,100789.6328125,25.179243087768555,60928.0
0.5400000214576721,1.3799999952316284,9.170000076293945,6.1875,-26.75,-39.1875,3.3125,-19.6875,-9.0625,0.6299999952316284,1.9900000095367432,9.579999923706055,0.90283203125,0.08111572265625,-0.0760498046875,-0.41534423828125,100789.7734375,25.18065071105957,60968.0
0.47999998927116394,3.680000066757202,8.069999694824219,5.375,-25.0,-39.5625,15.75,-14.0,-9.1875,0.7200000286102295,2.109999895095825,9.539999961853027,0.90093994140625,0.0831298828125,-0.0821533203125,-0.41790771484375,100789.421875,25.178810119628906,61008.0
1.0299999713897705,3.069999933242798,7.920000076293945,4.6875,-25.25,-39.5625,6.0,-17.9375,-2.3125,0.8199999928474426,2.1600000858306885,9.520000457763672,0.90008544921875,0.08233642578125,-0.08819580078125,-0.41876220703125,100789.3125,25.177438735961914,61048.0
1.8200000524520874,2.740000009536743,8.050000190734863,6.1875,-25.25,-40.1875,4.0,-14.4375,3.625,0.9300000071525574,2.180000066757202,9.510000228881836,0.900146484375,0.08154296875,-0.09283447265625,-0.417724609375,100789.5390625,25.177566528320312,61088.0
1.4500000476837158,2.490000009536743,8.850000381469727,6.1875,-25.25,-40.1875,3.4375,-5.125,6.4375,0.9900000095367432,2.200000047683716,9.5,0.9007568359375,0.08172607421875,-0.0950927734375,-0.415771484375,100789.34375,25.178234100341797,61128.0
1.2100000381469727,2.4000000953674316,8.65999984741211,5.0,-25.0,-39.1875,5.1875,-4.125,5.25,1.0299999713897705,2.2300000190734863,9.489999771118164,0.90118408203125,0.0823974609375,-0.09716796875,-0.414306640625,100789.3828125,25.1793155670166,61168.0
1.3300000429153442,2.2799999713897705,8.65999984741211,4.6875,-24.5625,-40.0625,0.0,-3.5,1.25,1.059999942779541,2.25,9.479999542236328,0.901123046875,0.081787109375,-0.0987548828125,-0.41412353515625,100789.1640625,25.178972244262695,61208.0
1.0399999618530273,1.559999942779541,8.640000343322754,3.25,-25.25,-39.5625,-8.625,0.3125,-1.9375,1.0800000429153442,2.2200000286102295,9.479999542236328,0.901123046875,0.0792236328125,-0.0972900390625,-0.4150390625,100788.921875,25.178701400756836,61248.0
0.8100000023841858,1.059999942779541,8.619999885559082,5.0625,-24.5625,-38.375,-9.4375,0.6875,-2.8125,1.059999942779541,2.1600000858306885,9.5,0.9010009765625,0.07647705078125,-0.09564208984375,-0.41619873046875,100788.890625,25.17909812927246,61288.0
0.8799999952316284,0.699999988079071,8.59000015258789,5.0625,-24.5625,-38.375,-6.6875,-0.625,-3.5,1.059999942779541,2.0999999046325684,9.510000228881836,0.90057373046875,0.0745849609375,-0.094970703125,-0.41754150390625,100788.7578125,25.178234100341797,61328.0
1.059999942779541,0.8399999737739563,8.869999885559082,3.0,-24.5625,-39.0625,-3.625,-3.75,-5.6875,1.0700000524520874,2.049999952316284,9.520000457763672,0.900146484375,0.06982421875,-0.09417724609375,-0.4195556640625,100788.8046875,25.17816162109375,61368.0
1.4600000381469727,0.8199999928474426,8.949999809265137,4.75,-23.5,-40.0,-2.0,-2.625,-8.0625,1.090000033378601,2.0,9.529999732971191,0.89892578125,0.0692138671875,-0.0943603515625,-0.42218017578125,100788.984375,25.176952362060547,61408.0
1.5499999523162842,0.7599999904632568,9.229999542236328,5.0625,-23.5,-40.0,-0.375,0.4375,-9.5,1.0800000429153442,2.0,9.529999732971191,0.8975830078125,0.06951904296875,-0.09393310546875,-0.425048828125,100789.0078125,25.177186965942383,61448.0
1.6200000047683716,1.25,10.199999809265137,5.5,-22.75,-39.1875,-3.1875,3.0,-8.9375,1.0499999523162842,2.0,9.539999961853027,0.89654541015625,0.06903076171875,-0.09222412109375,-0.42779541015625,100789.3203125,25.176231384277344,61488.0
1.600000023841858,1.2100000381469727,11.029999732971191,5.5,-22.75,-39.1875,-7.25,3.4375,-8.0,1.0199999809265137,1.9600000381469727,9.550000190734863,0.8956298828125,0.06781005859375,-0.08990478515625,-0.4302978515625,100789.2265625,25.17376136779785,61528.0
1.75,1.4600000381469727,11.199999809265137,5.875,-22.375,-40.6875,-5.3125,7.8125,-7.0,0.9700000286102295,1.9299999475479126,9.5600004196167,0.89501953125,0.06732177734375,-0.086181640625,-0.432373046875,100788.6328125,25.170766830444336,61568.0
1.2999999523162842,1.850000023841858,10.710000038146973,5.0625,-21.0,-41.875,-13.5,13.1875,-7.0,0.8899999856948853,1.8700000047683716,9.579999923706055,0.8946533203125,0.0650634765625,-0.08001708984375,-0.43463134765625,100788.640625,25.169666290283203,61608.0
0.4399999976158142,2.299999952316284,12.59000015258789,5.5,-21.25,-40.375,-24.5625,8.3125,-9.6875,0.8100000023841858,1.75,9.609999656677246,0.8939208984375,0.05804443359375,-0.07366943359375,-0.4383544921875,100788.59375,25.168277740478516,61648.0
0.47999998927116394,0.8199999928474426,11.34000015258789,7.0,-20.875,-40.6875,-25.5,-1.3125,-14.5,0.7799999713897705,1.559999942779541,9.640000343322754,0.89215087890625,0.05108642578125,-0.07000732421875,-0.443359375,100788.3671875,25.16550064086914,61688.0
0.5299999713897705,0.7400000095367432,9.359999656677246,7.0,-20.875,-40.6875,-7.0625,1.375,-14.1875,0.7699999809265137,1.4700000286102295,9.65999984741211,0.89013671875,0.049560546875,-0.06854248046875,-0.44775390625,100787.8828125,25.163408279418945,61728.0
0.03999999910593033,1.4299999475479126,8.75,7.6875,-18.375,-42.25,-0.6875,-2.75,-14.25,0.7599999904632568,1.4600000381469727,9.65999984741211,0.88775634765625,0.05029296875,-0.06964111328125,-0.45220947265625,100787.9140625,25.16185760498047,61768.0
1.0099999904632568,1.6799999475479126,8.369999885559082,8.0625,-19.5,-41.875,17.625,-0.5,-18.375,0.7599999904632568,1.5499999523162842,9.649999618530273,0.8846435546875,0.0565185546875,-0.07183837890625,-0.457275390625,100787.875,25.159530639648438,61808.0
0.3499999940395355,2.4100000858306885,8.869999885559082,-0.1875,-11.5625,-42.0625,22.8125,6.0625,-19.625,0.699999988079071,1.7000000476837158,9.630000114440918,0.8812255859375,0.06414794921875,-0.07269287109375,-0.46270751953125,100788.0546875,25.15778160095215,61848.0
0.07000000029802322,2.319999933242798,9.149999618530273,-0.1875,-11.5625,-42.0625,15.125,5.9375,-20.4375,0.6399999856948853,1.809999942779541,9.609999656677246,0.8779296875,0.0692138671875,-0.072509765625,-0.46820068359375,100787.6640625,25.154733657836914,61888.0
-0.029999999329447746,1.899999976158142,8.869999885559082,-0.1875,-11.5625,-41.6875,6.0,5.8125,-17.125,0.5799999833106995,1.8799999952316284,9.600000381469727,0.8753662109375,0.07208251953125,-0.07122802734375,-0.47271728515625,100787.8203125,25.154769897460938,61928.0
-0.07000000029802322,1.659999966621399,8.4399995803833,0.25,-12.6875,-42.375,-0.375,5.75,-10.625,0.5199999809265137,1.899999976158142,9.600000381469727,0.87396240234375,0.07275390625,-0.06915283203125,-0.4754638671875,100788.1328125,25.15190315246582,61968.0
-0.11999999731779099,1.2899999618530273,8.65999984741211,1.875,-11.5,-42.25,-8.875,3.25,-4.3125,0.49000000953674316,1.8600000143051147,9.609999656677246,0.8736572265625,0.0706787109375,-0.0665283203125,-0.476806640625,100788.21875,25.150333404541016,62008.0
0.3400000035762787,0.6700000166893005,9.029999732971191,2.75,-11.25,-41.6875,-10.875,5.4375,-1.75,0.46000000834465027,1.809999942779541,9.619999885559082,0.8740234375,0.0693359375,-0.06243896484375,-0.476806640625,100788.1015625,25.14914321899414,62048.0
-0.18000000715255737,0.1899999976158142,9.40999984741211,2.75,-11.25,-41.6875,-4.3125,14.25,1.6875,0.38999998569488525,1.7599999904632568,9.630000114440918,0.87469482421875,0.0714111328125,-0.05780029296875,-0.47589111328125,100787.4921875,25.147106170654297,62088.0
-0.6399999856948853,0.44999998807907104,9.279999732971191,2.75,-12.0625,-40.75,5.125,15.25,2.4375,0.27000001072883606,1.7699999809265137,9.630000114440918,0.87530517578125,0.075439453125,-0.05426025390625,-0.474609375,100788.234375,25.1490535736084,62128.0
-1.1100000143051147,0.7799999713897705,8.920000076293945,3.5625,-11.0625,-40.875,6.5625,15.0,4.3125,0.18000000715255737,1.8200000524520874,9.630000114440918,0.876220703125,0.07965087890625,-0.05145263671875,-0.4725341796875,100787.90625,25.1458797454834,62168.0
-1.5199999809265137,1.600000023841858,9.779999732971191,4.875,-11.1875,-41.0,4.8125,11.0625,6.5,0.10999999940395355,1.850000023841858,9.619999885559082,0.8775634765625,0.08123779296875,-0.04901123046875,-0.47003173828125,100788.125,25.14522933959961,62208.0
-1.5399999618530273,1.2899999618530273,11.149999618530273,4.6875,-12.0,-41.5625,-3.5625,7.0,9.9375,0.07999999821186066,1.840000033378601,9.630000114440918,0.87896728515625,0.0811767578125,-0.04754638671875,-0.467529296875,100788.46875,25.14533805847168,62248.0
-1.3899999856948853,1.8700000047683716,11.390000343322754,4.6875,-12.0,-41.5625,0.25,1.8125,12.8125,0.07000000029802322,1.8300000429153442,9.630000114440918,0.88104248046875,0.08087158203125,-0.04730224609375,-0.463623046875,100787.578125,25.145410537719727,62288.0
-1.0,2.2799999713897705,11.84000015258789,5.5,-12.0,-41.1875,-5.9375,-4.4375,13.5,0.10999999940395355,1.7899999618530273,9.630000114440918,0.88385009765625,0.07635498046875,-0.04803466796875,-0.458984375,100787.65625,25.146041870117188,62328.0
0.10000000149011612,2.7300000190734863,11.84000015258789,4.6875,-11.375,-41.375,-22.6875,-4.375,13.3125,0.1599999964237213,1.6699999570846558,9.65999984741211,0.88653564453125,0.067138671875,-0.04473876953125,-0.45556640625,100787.3359375,25.143625259399414,62368.0
0.5799999833106995,1.809999942779541,10.260000228881836,4.6875,-11.6875,-40.5,-30.5625,-2.8125,11.625,0.1899999976158142,1.4600000381469727,9.6899995803833,0.888671875,0.0579833984375,-0.0411376953125,-0.45294189453125,100786.5546875,25.140647888183594,62408.0
1.3300000429153442,1.590000033378601,9.199999809265137,5.5625,-10.5625,-42.5,-16.5,-1.375,7.4375,0.20000000298023224,1.340000033378601,9.710000038146973,0.8896484375,0.0545654296875,-0.03936767578125,-0.45166015625,100786.71875,25.14073944091797,62448.0
1.6799999475479126,0.7599999904632568,8.100000381469727,5.5625,-10.5625,-42.5,-8.625,8.5625,4.9375,0.18000000715255737,1.2599999904632568,9.720000267028809,0.890625,0.0543212890625,-0.0355224609375,-0.45001220703125,100787.0234375,25.141965866088867,62488.0
1.5700000524520874,1.1100000143051147,8.239999771118164,5.0625,-10.1875,-43.0,4.1875,23.375,7.625,0.07000000029802322,1.2699999809265137,9.720000267028809,0.89215087890625,0.05987548828125,-0.0289306640625,-0.44683837890625,100787.4140625,25.14402198791504,62528.0
0.12999999523162842,1.2899999618530273,9.039999961853027,4.6875,-9.875,-42.25,14.5625,34.875,14.75,-0.11999999731779099,1.340000033378601,9.710000038146973,0.89495849609375,0.07177734375,-0.01971435546875,-0.43988037109375,100787.640625,25.14730453491211,62568.0
-1.190000057220459,0.9300000071525574,9.279999732971191,5.75,-11.375,-41.0,19.4375,23.9375,16.375,-0.30000001192092896,1.4600000381469727,9.6899995803833,0.89630126953125,0.07891845703125,-0.0179443359375,-0.43597412109375,100787.875,25.15035057067871,62608.0
-0.6299999952316284,1.600000023841858,8.640000343322754,7.0,-11.0625,-40.5,24.0625,16.4375,11.75,-0.4000000059604645,1.6200000047683716,9.65999984741211,0.8974609375,0.0882568359375,-0.0164794921875,-0.43182373046875,100788.1484375,25.15204620361328,62648.0
-1.399999976158142,1.690000057220459,8.390000343322754,7.0,-11.0625,-40.5,15.0625,18.4375,9.375,-0.5099999904632568,1.7400000095367432,9.630000114440918,0.89849853515625,0.0947265625,-0.0133056640625,-0.42840576171875,100788.0625,25.148710250854492,62688.0
-1.6100000143051147,0.9200000166893005,8.760000228881836,7.875,-11.375,-39.5625,-0.5,10.8125,8.8125,-0.5899999737739563,1.7799999713897705,9.619999885559082,0.8997802734375,0.09600830078125,-0.010498046875,-0.42547607421875,100787.8125,25.147933959960938,62728.0
-1.2999999523162842,0.3700000047683716,8.960000038146973,9.25,-12.375,-39.5,-3.0,3.25,6.1875,-0.6200000047683716,1.7699999809265137,9.619999885559082,0.90069580078125,0.09552001953125,-0.00958251953125,-0.4237060546875,100787.09375,25.144472122192383,62768.0
-1.1399999856948853,0.3799999952316284,9.489999771118164,8.875,-11.5625,-39.6875,-2.0,-2.0625,0.9375,-0.6100000143051147,1.7599999904632568,9.619999885559082,0.90081787109375,0.09442138671875,-0.0101318359375,-0.4237060546875,100787.0234375,25.141874313354492,62808.0
-0.8899999856948853,-0.009999999776482582,9.770000457763672,8.0625,-12.1875,-39.0,-0.9375,-9.3125,-5.875,-0.5799999833106995,1.7400000095367432,9.630000114440918,0.8997802734375,0.09295654296875,-0.012939453125,-0.42608642578125,100786.6796875,25.141080856323242,62848.0
-0.20000000298023224,-0.029999999329447746,9.729999542236328,8.0625,-12.1875,-39.0,5.5625,-11.5,-12.0625,-0.5099999904632568,1.7599999904632568,9.630000114440918,0.897705078125,0.09375,-0.01690673828125,-0.43011474609375,100786.3828125,25.141063690185547,62888.0
-0.25,1.4500000476837158,10.5600004196167,8.25,-12.875,-38.375,12.1875,-6.125,-12.625,-0.4699999988079071,1.8300000429153442,9.619999885559082,0.8956298828125,0.09619140625,-0.01971435546875,-0.43389892578125,100786.015625,25.14104461669922,62928.0
-0.3199999928474426,1.559999942779541,11.010000228881836,9.6875,-12.6875,-38.5,0.8125,-3.1875,-8.9375,-0.46000000834465027,1.8600000143051147,9.609999656677246,0.89422607421875,0.095703125,-0.02044677734375,-0.43670654296875,100785.7734375,25.13929557800293,62968.0
-0.20000000298023224,2.0399999618530273,11.5600004196167,8.5,-13.0,-38.5625,-6.25,-3.375,-9.625,-0.44999998807907104,1.8300000429153442,9.619999885559082,0.89300537109375,0.0928955078125,-0.0198974609375,-0.43988037109375,100785.21875,25.137998580932617,63008.0
-0.1599999964237213,1.4600000381469727,12.210000038146973,9.0,-12.6875,-39.75,-23.4375,1.125,-11.25,-0.44999998807907104,1.7300000190734863,9.640000343322754,0.89208984375,0.0860595703125,-0.01519775390625,-0.443359375,100785.4296875,25.137582778930664,63048.0
-0.949999988079071,0.20000000298023224,11.989999771118164,9.0,-12.6875,-39.75,-17.8125,5.0,-11.0625,-0.5,1.5700000524520874,9.65999984741211,0.890869140625,0.08319091796875,-0.01129150390625,-0.4464111328125,100785.015625,25.13787078857422,63088.0
-2.2200000286102295,1.840000033378601,8.75,9.0,-12.0,-38.875,18.5,3.125,-8.0625,-0.5400000214576721,1.590000033378601,9.65999984741211,0.8890380859375,0.0888671875,-0.01373291015625,-0.4488525390625,100784.78125,25.13691520690918,63128.0
-1.159999966621399,2.0299999713897705,7.849999904632568,8.5625,-11.0625,-38.1875,7.4375,-14.25,-9.0,-0.5,1.7000000476837158,9.640000343322754,0.88726806640625,0.08917236328125,-0.01910400390625,-0.4521484375,100784.4765625,25.13448143005371,63168.0
-0.25999999046325684,2.049999952316284,8.25,9.0625,-11.6875,-38.875,14.5625,-16.625,-14.125,-0.4099999964237213,1.7599999904632568,9.630000114440918,0.88446044921875,0.09136962890625,-0.02569580078125,-0.45684814453125,100785.046875,25.136104583740234,63208.0
-0.4099999964237213,2.369999885559082,8.630000114440918,8.375,-11.6875,-39.25,24.75,-10.625,-17.25,-0.3400000035762787,1.8799999952316284,9.609999656677246,0.880859375,0.09710693359375,-0.03204345703125,-0.46221923828125,100785.5234375,25.13559913635254,63248.0
-0.27000001072883606,2.609999895095825,9.140000343322754,8.375,-11.6875,-39.25,24.375,-8.0,-18.625,-0.3100000023841858,2.0399999618530273,9.579999923706055,0.8770751953125,0.10333251953125,-0.037353515625,-0.4676513671875,100786.125,25.136951446533203,63288.0
-0.8500000238418579,2.6700000762939453,8.710000038146973,7.75,-12.25,-39.0,18.8125,-5.625,-17.875,-0.30000001192092896,2.180000066757202,9.550000190734863,0.87359619140625,0.10760498046875,-0.04119873046875,-0.47283935546875,100785.7265625,25.135652542114258,63328.0
-0.7900000214576721,2.5399999618530273,8.529999732971191,7.375,-12.0,-39.5,4.75,-7.5625,-15.6875,-0.2800000011920929,2.240000009536743,9.539999961853027,0.870849609375,0.1077880859375,-0.04351806640625,-0.47760009765625,100785.890625,25.135833740234375,63368.0
-0.7799999713897705,1.659999966621399,8.399999618530273,9.0625,-11.875,-37.6875,-0.1875,-8.6875,-14.4375,-0.25,2.240000009536743,9.539999961853027,0.8682861328125,0.10650634765625,-0.045654296875,-0.4822998046875,100785.3671875,25.133668899536133,63408.0
-0.5400000214576721,1.4600000381469727,8.649999618530273,9.0625,-11.875,-37.6875,-2.6875,-10.25,-17.9375,-0.20000000298023224,2.2300000190734863,9.539999961853027,0.86517333984375,0.10455322265625,-0.047607421875,-0.48809814453125,100785.234375,25.132604598999023,63448.0
-0.41999998688697815,0.9700000286102295,8.930000305175781,8.0625,-11.5625,-38.0,2.1875,-7.625,-20.375,-0.18000000715255737,2.2300000190734863,9.539999961853027,0.86163330078125,0.10455322265625,-0.04931640625,-0.49420166015625,100785.2421875,25.1318302154541,63488.0
-0.6600000262260437,1.4700000286102295,9.140000343322754,8.0,-12.25,-37.75,5.125,-2.8125,-18.875,-0.18000000715255737,2.259999990463257,9.539999961853027,0.85833740234375,0.105712890625,-0.0501708984375,-0.49951171875,100785.4140625,25.131235122680664,63528.0
-1.100000023841858,1.5700000524520874,9.109999656677246,8.6875,-11.75,-38.5625,0.625,-1.4375,-13.875,-0.1899999976158142,2.2699999809265137,9.529999732971191,0.8560791015625,0.10577392578125,-0.0504150390625,-0.50341796875,100785.515625,25.129629135131836,63568.0
-1.4500000476837158,1.8600000143051147,9.300000190734863,8.75,-11.5,-37.75,0.375,-5.1875,-9.875,-0.18000000715255737,2.2699999809265137,9.529999732971191,0.854736328125,0.1041259765625,-0.05157470703125,-0.505859375,100785.8515625,25.12843894958496,63608.0
-1.6100000143051147,2.109999895095825,10.489999771118164,8.75,-11.5,-37.75,-7.6875,-7.875,-3.5625,-0.14000000059604645,2.2200000286102295,9.539999961853027,0.8546142578125,0.099609375,-0.05242919921875,-0.5069580078125,100785.9921875,25.128114700317383,63648.0
-1.590000033378601,2.059999942779541,10.9399995803833,7.875,-12.0,-38.0,-14.5,-13.3125,-0.75,-0.07000000029802322,2.140000104904175,9.5600004196167,0.854736328125,0.092529296875,-0.05377197265625,-0.5079345703125,100786.4140625,25.12845802307129,63688.0
-1.3300000429153442,2.1500000953674316,11.510000228881836,8.25,-11.1875,-38.875,-24.875,-19.75,-1.75,0.029999999329447746,2.0,9.59000015258789,0.85479736328125,0.08160400390625,-0.05535888671875,-0.50958251953125,100786.3515625,25.126977920532227,63728.0
-0.5,2.0399999618530273,11.59000015258789,7.5625,-10.5,-38.0625,-29.625,-25.0,-0.375,0.1899999976158142,1.8200000524520874,9.630000114440918,0.855224609375,0.06854248046875,-0.05682373046875,-0.51055908203125,100785.7890625,25.125282287597656,63768.0
0.6899999976158142,2.049999952316284,11.779999732971191,7.25,-10.6875,-39.375,-38.3125,-16.75,5.5,0.28999999165534973,1.649999976158142,9.65999984741211,0.85711669921875,0.054931640625,-0.0540771484375,-0.50927734375,100785.1640625,25.123443603515625,63808.0
0.5,1.2300000190734863,9.760000228881836,7.25,-10.6875,-39.375,-30.8125,-10.875,9.125,0.3799999952316284,1.409999966621399,9.6899995803833,0.8587646484375,0.04583740234375,-0.0526123046875,-0.50762939453125,100785.328125,25.12436294555664,63848.0
0.7200000286102295,1.659999966621399,9.119999885559082,6.5,-8.1875,-39.6875,-11.75,-6.5625,1.1875,0.44999998807907104,1.25,9.710000038146973,0.85888671875,0.0413818359375,-0.05255126953125,-0.5078125,100785.25,25.123912811279297,63888.0
0.7799999713897705,1.0,8.369999885559082,6.25,-7.875,-39.875,-5.5,-5.5625,-2.375,0.47999998927116394,1.2000000476837158,9.710000038146973,0.8582763671875,0.04052734375,-0.0537109375,-0.50872802734375,100785.1171875,25.121261596679688,63928.0
0.9200000166893005,0.8799999952316284,8.4399995803833,4.75,-7.1875,-39.375,8.125,-1.5625,-3.0,0.5,1.25,9.710000038146973,0.85760498046875,0.04437255859375,-0.0562744140625,-0.50927734375,100785.15625,25.119836807250977,63968.0
0.6499999761581421,1.3700000047683716,9.010000228881836,5.5,-6.6875,-40.5625,21.1875,0.625,-2.25,0.5,1.340000033378601,9.699999809265137,0.85711669921875,0.04931640625,-0.058837890625,-0.5093994140625,100785.375,25.119945526123047,64008.0
0.28999999165534973,1.340000033378601,8.970000267028809,5.5,-6.6875,-40.5625,22.3125,1.0625,-0.8125,0.49000000953674316,1.4800000190734863,9.680000305175781,0.8565673828125,0.05584716796875,-0.0625,-0.50921630859375,100785.28125,25.120594024658203,64048.0
0.4099999964237213,1.0700000524520874,8.640000343322754,5.5625,-7.0625,-40.6875,21.4375,-3.25,-2.625,0.5,1.659999966621399,9.649999618530273,0.8551025390625,0.063232421875,-0.06829833984375,-0.510009765625,100785.4140625,25.122234344482422,64088.0
0.4099999964237213,1.5700000524520874,8.260000228881836,5.6875,-8.6875,-40.375,21.9375,-1.5,-5.9375,0.5099999904632568,1.809999942779541,9.619999885559082,0.85357666015625,0.06817626953125,-0.07147216796875,-0.51153564453125,100785.2109375,25.118267059326172,64128.0
0.14000000059604645,1.4900000095367432,8.420000076293945,6.0,-8.6875,-40.875,8.3125,-1.75,-7.6875,0.5099999904632568,1.8799999952316284,9.609999656677246,0.8519287109375,0.06878662109375,-0.07269287109375,-0.51397705078125,100785.2734375,25.117023468017578,64168.0
0.4699999988079071,1.0499999523162842,8.739999771118164,6.0625,-10.375,-40.0,-4.0,-4.25,-9.625,0.5199999809265137,1.8700000047683716,9.609999656677246,0.85064697265625,0.06719970703125,-0.07269287109375,-0.51629638671875,100785.703125,25.117816925048828,64208.0
0.550000011920929,0.5600000023841858,9.430000305175781,6.0625,-10.375,-40.0,-9.125,-5.5,-9.5,0.5400000214576721,1.8200000524520874,9.609999656677246,0.84912109375,0.0638427734375,-0.07281494140625,-0.519287109375,100785.421875,25.11842918395996,64248.0
1.409999966621399,0.5400000214576721,9.550000190734863,5.6875,-9.75,-40.875,-4.5625,-8.0625,-7.25,0.5799999833106995,1.7799999713897705,9.619999885559082,0.84783935546875,0.0615234375,-0.0738525390625,-0.521484375,100785.7109375,25.12003517150879,64288.0
1.600000023841858,0.9300000071525574,9.59000015258789,5.375,-8.1875,-40.0625,-5.125,0.25,-4.1875,0.5899999737739563,1.7599999904632568,9.619999885559082,0.8472900390625,0.0599365234375,-0.072265625,-0.5228271484375,100784.8046875,25.120647430419922,64328.0
1.25,0.23999999463558197,10.649999618530273,4.75,-8.875,-40.0625,-11.5625,7.0,-1.9375,0.5600000023841858,1.690000057220459,9.640000343322754,0.8472900390625,0.05828857421875,-0.0682373046875,-0.5234375,100784.6953125,25.12342643737793,64368.0
1.1200000047683716,0.9300000071525574,10.979999542236328,6.0625,-7.6875,-41.25,0.4375,12.1875,-1.875,0.49000000953674316,1.659999966621399,9.649999618530273,0.8472900390625,0.060546875,-0.064453125,-0.523681640625,100785.265625,25.12436294555664,64408.0
0.800000011920929,2.200000047683716,11.100000381469727,6.0625,-7.6875,-41.25,-10.25,18.6875,-1.625,0.38999998569488525,1.6399999856948853,9.649999618530273,0.84771728515625,0.06024169921875,-0.0565185546875,-0.52398681640625,100784.453125,25.121585845947266,64448.0
0.0,1.4800000190734863,11.770000457763672,5.1875,-6.75,-40.5,-21.1875,24.4375,-1.0625,0.23999999463558197,1.5099999904632568,9.680000305175781,0.848388671875,0.05804443359375,-0.04559326171875,-0.52423095703125,100784.453125,25.1195125579834,64488.0
-0.6899999976158142,1.0199999809265137,11.920000076293945,7.5,-7.375,-41.0,-33.5,21.625,-1.25,0.07999999821186066,1.3300000429153442,9.710000038146973,0.84912109375,0.05224609375,-0.03387451171875,-0.5245361328125,100784.03125,25.114498138427734,64528.0
-1.5299999713897705,0.12999999523162842,11.3100004196167,8.5625,-6.0,-41.5,-28.4375,12.3125,1.4375,-0.009999999776482582,1.1200000047683716,9.739999771118164,0.84991455078125,0.046630859375,-0.0263671875,-0.52423095703125,100784.1484375,25.111902236938477,64568.0
-1.4500000476837158,-0.17000000178813934,9.680000305175781,7.5,-6.1875,-41.25,5.0625,-3.0,1.5,-0.029999999329447746,1.0399999618530273,9.75,0.84991455078125,0.0477294921875,-0.029052734375,-0.52392578125,100783.796875,25.1110897064209,64608.0
-1.149999976158142,1.8300000429153442,8.109999656677246,7.5,-6.1875,-41.25,9.25,-14.25,0.0,0.029999999329447746,1.1299999952316284,9.739999771118164,0.84991455078125,0.04730224609375,-0.03466796875,-0.52362060546875,100783.3515625,25.111648559570312,64648.0
-1.8200000524520874,1.149999976158142,8.550000190734863,7.375,-5.6875,-40.1875,11.0625,-22.5,10.0,0.1599999964237213,1.1699999570846558,9.729999542236328,0.8509521484375,0.04632568359375,-0.044189453125,-0.5213623046875,100783.125,25.11090850830078,64688.0
-0.7799999713897705,1.5800000429153442,8.600000381469727,7.875,-4.75,-40.75,16.875,-41.0625,-0.5,0.38999998569488525,1.2799999713897705,9.710000038146973,0.849609375,0.0438232421875,-0.05908203125,-0.522216796875,100782.890625,25.109773635864258,64728.0
1.1299999952316284,1.3799999952316284,8.829999923706055,7.1875,-5.5,-41.375,16.75,-43.1875,-11.3125,0.6700000166893005,1.3899999856948853,9.680000305175781,0.8463134765625,0.04180908203125,-0.07379150390625,-0.52587890625,100782.609375,25.107770919799805,64768.0
1.3300000429153442,1.940000057220459,8.710000038146973,5.6875,-7.0625,-41.0,19.0625,-28.0,-16.625,0.8799999952316284,1.5199999809265137,9.640000343322754,0.84234619140625,0.04254150390625,-0.084228515625,-0.5306396484375,100783.0,25.107988357543945,64808.0
1.149999976158142,1.9500000476837158,8.819999694824219,5.6875,-7.0625,-41.0,6.8125,-13.5625,-17.0625,0.9800000190734863,1.6100000143051147,9.619999885559082,0.8388671875,0.0423583984375,-0.08831787109375,-0.53546142578125,100783.3671875,25.10816764831543,64848.0
0.41999998688697815,0.8100000023841858,8.800000190734863,5.6875,-6.375,-41.25,-5.0625,-4.5625,-15.8125,1.0099999904632568,1.6100000143051147,9.609999656677246,0.83599853515625,0.0406494140625,-0.08837890625,-0.5400390625,100783.03125,25.107717514038086,64888.0
-0.09000000357627869,0.41999998688697815,8.930000305175781,4.25,-6.75,-40.875,-6.0625,-1.5,-11.9375,1.0099999904632568,1.5800000429153442,9.619999885559082,0.83392333984375,0.0390625,-0.0877685546875,-0.54345703125,100783.03125,25.10679817199707,64928.0
-0.15000000596046448,0.44999998807907104,9.289999961853027,6.25,-6.375,-41.1875,-1.0625,-4.1875,-8.5,1.0199999809265137,1.5700000524520874,9.619999885559082,0.83221435546875,0.038330078125,-0.0887451171875,-0.54595947265625,100782.6796875,25.104381561279297,64968.0
-0.3799999952316284,0.6100000143051147,9.270000457763672,5.25,-5.75,-39.5,2.125,-6.3125,-5.4375,1.0099999904632568,1.5499999523162842,9.619999885559082,0.8311767578125,0.03778076171875,-0.08843994140625,-0.547607421875,100782.359375,25.101999282836914,65008.0
-0.41999998688697815,0.6600000262260437,9.279999732971191,5.25,-5.75,-39.5,6.6875,-12.0,-3.6875,1.0199999809265137,1.559999942779541,9.619999885559082,0.83013916015625,0.03778076171875,-0.090576171875,-0.548828125,100782.609375,25.101369857788086,65048.0
-0.10999999940395355,1.2799999713897705,9.65999984741211,4.75,-5.5,-39.875,8.3125,-14.3125,-3.5,1.1100000143051147,1.6100000143051147,9.600000381469727,0.8289794921875,0.03729248046875,-0.09576416015625,-0.54974365234375,100783.1484375,25.102035522460938,65088.0
0.18000000715255737,1.3899999856948853,11.140000343322754,4.25,-6.25,-39.375,1.4375,-11.0625,-1.5625,1.190000057220459,1.6399999856948853,9.59000015258789,0.82830810546875,0.0357666015625,-0.0992431640625,-0.55029296875,100783.15625,25.101964950561523,65128.0
0.36000001430511475,1.9500000476837158,11.380000114440918,4.1875,-6.6875,-40.25,-0.8125,-10.9375,-1.875,1.2599999904632568,1.649999976158142,9.579999923706055,0.8277587890625,0.0328369140625,-0.10162353515625,-0.5509033203125,100782.75,25.09960174560547,65168.0
0.4300000071525574,1.850000023841858,11.960000038146973,4.1875,-6.6875,-40.25,-12.6875,-11.75,3.0625,1.3300000429153442,1.590000033378601,9.579999923706055,0.82818603515625,0.02655029296875,-0.10247802734375,-0.5504150390625,100782.6875,25.098987579345703,65208.0
1.2599999904632568,1.8200000524520874,12.34000015258789,5.0,-6.25,-41.375,-25.4375,-12.4375,9.25,1.4199999570846558,1.4500000476837158,9.59000015258789,0.8297119140625,0.01678466796875,-0.10113525390625,-0.5487060546875,100783.03125,25.098520278930664,65248.0
1.3799999952316284,1.190000057220459,10.930000305175781,3.75,-5.5625,-38.75,-21.5,-14.3125,8.5625,1.5099999904632568,1.2799999713897705,9.600000381469727,0.83087158203125,0.0084228515625,-0.101806640625,-0.5469970703125,100783.3671875,25.098176956176758,65288.0
1.7699999809265137,0.75,9.09000015258789,3.875,-4.875,-41.5,3.875,-20.8125,8.1875,1.6299999952316284,1.2200000286102295,9.59000015258789,0.8316650390625,0.00567626953125,-0.1085205078125,-0.5445556640625,100783.34375,25.096769332885742,65328.0
2.440000057220459,1.649999976158142,8.039999961853027,3.5,-4.1875,-40.5625,12.0625,-20.625,7.4375,1.7699999809265137,1.2899999618530273,9.550000190734863,0.83203125,0.0064697265625,-0.11700439453125,-0.54217529296875,100782.9921875,25.095129013061523,65368.0
3.069999933242798,2.359999895095825,7.630000114440918,3.5,-4.1875,-40.5625,19.0625,-14.75,4.0625,1.8799999952316284,1.399999976158142,9.520000457763672,0.83221435546875,0.0096435546875,-0.12310791015625,-0.54052734375,100782.5859375,25.093324661254883,65408.0
2.7300000190734863,2.2300000190734863,7.920000076293945,2.75,-4.25,-40.5625,15.5625,0.3125,4.0,1.909999966621399,1.5099999904632568,9.489999771118164,0.8330078125,0.01385498046875,-0.12567138671875,-0.5386962890625,100782.4765625,25.090818405151367,65448.0
2.059999942779541,1.8300000429153442,8.479999542236328,2.5,-5.75,-39.75,11.25,3.25,5.75,1.8899999856948853,1.5800000429153442,9.479999542236328,0.8341064453125,0.01727294921875,-0.12689208984375,-0.53656005859375,100781.9609375,25.087194442749023,65488.0
2.0199999809265137,1.2999999523162842,8.75,2.6875,-6.375,-40.0,11.125,2.5,6.5625,1.8899999856948853,1.6399999856948853,9.479999542236328,0.83538818359375,0.02069091796875,-0.12811279296875,-0.5341796875,100782.4296875,25.087373733520508,65528.0
1.7400000095367432,1.2400000095367432,8.760000228881836,3.375,-6.375,-39.5625,10.6875,5.0625,7.125,1.8700000047683716,1.690000057220459,9.470000267028809,0.83673095703125,0.02398681640625,-0.12835693359375,-0.53179931640625,100782.671875,25.086345672607422,65568.0
1.3600000143051147,1.2000000476837158,8.710000038146973,3.375,-6.375,-39.5625,8.0625,3.875,5.0,1.850000023841858,1.7400000095367432,9.470000267028809,0.83734130859375,0.026123046875,-0.1287841796875,-0.5306396484375,100782.3203125,25.086166381835938,65608.0
1.6299999952316284,1.3200000524520874,8.729999542236328,3.375,-5.875,-39.25,-0.5625,1.5,-0.6875,1.8300000429153442,1.7599999904632568,9.470000267028809,0.8372802734375,0.02581787109375,-0.127685546875,-0.531005859375,100782.484375,25.086597442626953,65648.0
1.6699999570846558,0.9800000190734863,8.699999809265137,3.25,-6.5625,-38.5625,-7.5625,2.25,-3.375,1.809999942779541,1.7200000286102295,9.479999542236328,0.83648681640625,0.02337646484375,-0.12542724609375,-0.532958984375,100782.71875,25.085769653320312,65688.0
1.7799999713897705,0.5299999713897705,9.199999809265137,3.1875,-7.0,-39.0,-13.4375,-1.1875,-8.625,1.809999942779541,1.649999976158142,9.489999771118164,0.834716796875,0.01959228515625,-0.12335205078125,-0.536376953125,100782.8984375,25.084001541137695,65728.0
