Accel_X,Accel_Y,Accel_Z,Magneto_X,Magneto_Y,Magneto_Z,Gyro_X,Gyro_Y,Gyro_Z,Gravity_X,Gravity_Y,Gravity_Z,Quaternion_W,Quaternion_X,Quaternion_Y,Quaternion_Z,Pressure,Temperature,Time
1.2599999904632568,2.6600000858306885,9.029999732971191,0.25,-12.25,-47.375,-13.4375,8.9375,23.75,1.3899999856948853,3.0199999809265137,9.220000267028809,-0.59698486328125,-0.1513671875,-0.07958984375,-0.7838134765625,83064.8515625,23.358642578125,65051.0
1.159999966621399,2.490000009536743,9.069999694824219,1.5625,-12.5,-47.0625,-11.0625,5.8125,19.9375,1.3899999856948853,2.9200000762939453,9.25,-0.5919189453125,-0.1478271484375,-0.07672119140625,-0.78857421875,100767.015625,24.746252059936523,65091.0
1.399999976158142,2.2699999809265137,9.0600004196167,1.1875,-12.6875,-47.6875,-8.8125,8.0,18.0,1.3799999952316284,2.819999933242798,9.279999732971191,-0.58740234375,-0.1436767578125,-0.07391357421875,-0.79302978515625,100766.046875,24.76645278930664,65131.0
1.1399999856948853,2.069999933242798,9.170000076293945,1.375,-12.0,-47.5,-5.3125,8.4375,16.3125,1.350000023841858,2.7300000190734863,9.3100004196167,-0.58306884765625,-0.13922119140625,-0.07208251953125,-0.797119140625,100765.1875,24.798917770385742,65171.0
1.350000023841858,2.130000114440918,9.1899995803833,0.75,-12.25,-47.0,-0.3125,8.4375,14.9375,1.3300000429153442,2.690000057220459,9.329999923706055,-0.578857421875,-0.1363525390625,-0.07196044921875,-0.80072021484375,100764.28125,24.834808349609375,65211.0
1.2200000286102295,2.4100000858306885,9.180000305175781,0.75,-12.25,-47.0,2.5625,12.0625,15.0625,1.2999999523162842,2.6700000762939453,9.34000015258789,-0.5743408203125,-0.13397216796875,-0.07440185546875,-0.80413818359375,100763.03125,24.87210464477539,65251.0
0.7400000095367432,2.5999999046325684,9.210000038146973,2.375,-11.75,-48.25,3.5625,10.0,14.5,1.2400000095367432,2.680000066757202,9.34000015258789,-0.5699462890625,-0.13214111328125,-0.07672119140625,-0.807373046875,100761.640625,24.9052734375,65291.0
0.9900000095367432,2.75,9.119999885559082,2.75,-12.6875,-48.25,1.3125,5.9375,11.875,1.2100000381469727,2.690000057220459,9.350000381469727,-0.56634521484375,-0.130859375,-0.07806396484375,-0.8099365234375,100761.1875,24.93651008605957,65331.0
1.090000033378601,2.6500000953674316,9.130000114440918,3.5,-13.5,-46.25,-0.75,8.1875,10.6875,1.1799999475479126,2.680000066757202,9.350000381469727,-0.5633544921875,-0.12872314453125,-0.0789794921875,-0.812255859375,100761.0,24.965131759643555,65371.0
1.1100000143051147,2.4200000762939453,9.239999771118164,2.0,-12.1875,-46.375,0.4375,7.0625,6.8125,1.159999966621399,2.6700000762939453,9.359999656677246,-0.56134033203125,-0.12701416015625,-0.0802001953125,-0.8138427734375,100760.6796875,24.989479064941406,65411.0
1.0099999904632568,2.5899999141693115,9.210000038146973,2.0,-12.1875,-46.375,2.375,7.1875,4.4375,1.1200000047683716,2.680000066757202,9.359999656677246,-0.55987548828125,-0.12548828125,-0.08203125,-0.81488037109375,100760.109375,25.00830841064453,65451.0
0.8100000023841858,2.740000009536743,9.289999961853027,3.0,-13.0625,-46.0625,1.5625,6.3125,4.0625,1.0700000524520874,2.690000057220459,9.359999656677246,-0.55828857421875,-0.123779296875,-0.08380126953125,-0.81610107421875,100759.59375,25.024738311767578,65491.0
0.8999999761581421,2.8299999237060547,9.25,3.25,-13.6875,-47.5,0.3125,3.375,3.9375,1.0499999523162842,2.690000057220459,9.359999656677246,-0.55718994140625,-0.12286376953125,-0.0841064453125,-0.81689453125,100759.0,25.03765106201172,65531.0
1.059999942779541,2.5899999141693115,9.220000267028809,4.6875,-14.0,-47.25,-2.75,3.1875,3.25,1.0399999618530273,2.680000066757202,9.369999885559082,-0.55657958984375,-0.12152099609375,-0.08380126953125,-0.817626953125,100758.296875,25.049068450927734,65571.0
1.090000033378601,2.450000047683716,9.220000267028809,4.1875,-12.75,-47.0,-2.6875,2.9375,0.75,1.0199999809265137,2.6600000858306885,9.380000114440918,-0.5565185546875,-0.12054443359375,-0.08367919921875,-0.81781005859375,100757.859375,25.05877113342285,65611.0
1.1299999952316284,1.1699999570846558,9.140000343322754,4.1875,-12.75,-47.0,-9.625,4.6875,0.9375,1.0,2.630000114440918,9.390000343322754,-0.55621337890625,-0.1182861328125,-0.08343505859375,-0.818359375,100757.5625,25.06951904296875,65651.0
0.550000011920929,2.7100000381469727,9.199999809265137,2.5625,-13.875,-46.5625,3.25,5.5,1.3125,0.9599999785423279,2.640000104904175,9.390000343322754,-0.5556640625,-0.11749267578125,-0.0849609375,-0.81866455078125,100757.1875,25.07988929748535,65691.0
0.8100000023841858,2.7300000190734863,9.210000038146973,4.0625,-13.75,-47.1875,2.8125,2.375,0.6875,0.949999988079071,2.6500000953674316,9.390000343322754,-0.5552978515625,-0.117431640625,-0.0860595703125,-0.81884765625,100756.828125,25.089393615722656,65731.0
0.7300000190734863,2.7699999809265137,9.289999961853027,3.375,-12.6875,-47.0625,0.0,0.9375,1.1875,0.9399999976158142,2.6600000858306885,9.390000343322754,-0.554931640625,-0.117431640625,-0.0863037109375,-0.81903076171875,100757.15625,25.098249435424805,65771.0
0.7400000095367432,3.119999885559082,9.329999923706055,4.6875,-13.5,-47.375,2.5625,-2.125,0.4375,0.9399999976158142,2.6700000762939453,9.380000114440918,-0.55499267578125,-0.1182861328125,-0.0863037109375,-0.81884765625,100756.40625,25.103750228881836,65811.0
0.9599999785423279,2.609999895095825,9.279999732971191,4.6875,-13.5,-47.375,-3.5,-4.625,0.0,0.9700000286102295,2.6600000858306885,9.380000114440918,-0.5552978515625,-0.118896484375,-0.08441162109375,-0.81878662109375,100755.9921875,25.107284545898438,65851.0
1.090000033378601,2.4800000190734863,9.270000457763672,4.0625,-13.375,-45.1875,-4.6875,-5.5,1.1875,1.0,2.630000114440918,9.390000343322754,-0.5552978515625,-0.11944580078125,-0.081787109375,-0.8189697265625,100755.8984375,25.111106872558594,65891.0
1.2000000476837158,2.119999885559082,9.170000076293945,3.1875,-14.1875,-46.25,-3.375,-3.3125,3.1875,1.0399999618530273,2.5899999141693115,9.390000343322754,-0.55462646484375,-0.11981201171875,-0.080322265625,-0.81951904296875,100755.2109375,25.112226486206055,65931.0
1.0700000524520874,2.3399999141693115,9.239999771118164,3.875,-14.25,-46.25,0.875,-1.1875,2.6875,1.059999942779541,2.5899999141693115,9.390000343322754,-0.55389404296875,-0.1202392578125,-0.0802001953125,-0.8199462890625,100754.875,25.113073348999023,65971.0
1.1100000143051147,2.5199999809265137,9.260000228881836,4.375,-13.375,-46.25,-1.9375,-0.9375,1.1875,1.059999942779541,2.5899999141693115,9.390000343322754,-0.55364990234375,-0.12005615234375,-0.0794677734375,-0.8201904296875,100754.453125,25.113704681396484,66011.0
0.8700000047683716,2.059999942779541,9.3100004196167,4.375,-13.375,-46.25,-1.8125,0.4375,1.25,1.059999942779541,2.569999933242798,9.399999618530273,-0.5533447265625,-0.11993408203125,-0.07928466796875,-0.8204345703125,100754.265625,25.11763572692871,66051.0
0.8999999761581421,2.0,9.15999984741211,3.6875,-13.0625,-47.5,2.4375,0.625,1.3125,1.059999942779541,2.5799999237060547,9.399999618530273,-0.55291748046875,-0.120361328125,-0.0804443359375,-0.820556640625,100753.9375,25.120594024658203,66091.0
0.8999999761581421,2.6500000953674316,9.239999771118164,4.0,-13.75,-46.6875,6.3125,-0.3125,-0.5625,1.059999942779541,2.619999885559082,9.380000114440918,-0.5526123046875,-0.1217041015625,-0.08233642578125,-0.82037353515625,100754.0625,25.122812271118164,66131.0
0.7900000214576721,2.740000009536743,9.289999961853027,3.6875,-13.375,-46.25,1.4375,-0.5625,0.1875,1.059999942779541,2.6500000953674316,9.380000114440918,-0.55267333984375,-0.12200927734375,-0.0823974609375,-0.8203125,100753.8203125,25.12447166442871,66171.0
1.0099999904632568,2.8499999046325684,9.390000343322754,4.0,-13.75,-46.25,2.5625,-3.4375,-2.1875,1.0700000524520874,2.6500000953674316,9.369999885559082,-0.55322265625,-0.1231689453125,-0.08233642578125,-0.81976318359375,100754.140625,25.12687110900879,66211.0
1.0700000524520874,3.109999895095825,9.210000038146973,4.0,-13.75,-46.25,-1.375,-3.9375,-2.125,1.090000033378601,2.6600000858306885,9.369999885559082,-0.55401611328125,-0.12359619140625,-0.080810546875,-0.81927490234375,100753.875,25.12925148010254,66251.0
1.2300000190734863,2.069999933242798,9.220000267028809,3.6875,-14.5,-47.5,-1.25,-2.5,-2.25,1.1100000143051147,2.630000114440918,9.380000114440918,-0.5548095703125,-0.12408447265625,-0.080078125,-0.8187255859375,100753.75,25.13103675842285,66291.0
1.2200000286102295,2.75,9.119999885559082,3.0,-13.6875,-46.6875,1.75,-2.9375,-2.625,1.1200000047683716,2.640000104904175,9.369999885559082,-0.55560302734375,-0.125,-0.079833984375,-0.818115234375,100753.296875,25.13294792175293,66331.0
1.340000033378601,2.6500000953674316,9.180000305175781,3.25,-13.375,-47.5,-3.1875,-1.875,-1.8125,1.1399999856948853,2.630000114440918,9.369999885559082,-0.5562744140625,-0.12481689453125,-0.07861328125,-0.81781005859375,100753.171875,25.133813858032227,66371.0
1.2799999713897705,2.3499999046325684,9.25,3.6875,-14.1875,-45.5,-2.5625,-1.0625,-0.875,1.1399999856948853,2.609999895095825,9.380000114440918,-0.55657958984375,-0.12457275390625,-0.07757568359375,-0.8177490234375,100753.7890625,25.13617706298828,66411.0
1.2300000190734863,2.3499999046325684,9.289999961853027,3.6875,-14.1875,-45.5,-2.8125,-0.875,1.0,1.149999976158142,2.5899999141693115,9.380000114440918,-0.55645751953125,-0.12451171875,-0.07666015625,-0.81793212890625,100754.078125,25.13738441467285,66451.0
1.3300000429153442,2.7799999713897705,9.180000305175781,1.875,-13.0,-47.5,-2.25,-0.5625,1.375,1.159999966621399,2.5799999237060547,9.380000114440918,-0.55621337890625,-0.12420654296875,-0.07574462890625,-0.8182373046875,100753.6875,25.138286590576172,66491.0
1.2999999523162842,2.299999952316284,9.1899995803833,2.5625,-13.375,-46.75,-4.25,1.0,0.9375,1.159999966621399,2.549999952316284,9.390000343322754,-0.55609130859375,-0.12322998046875,-0.07489013671875,-0.81854248046875,100753.28125,25.13897132873535,66531.0
1.2000000476837158,2.8399999141693115,9.239999771118164,3.25,-13.375,-46.375,-6.875,0.9375,1.125,1.159999966621399,2.5199999809265137,9.399999618530273,-0.55596923828125,-0.12176513671875,-0.07330322265625,-0.8189697265625,100754.1796875,25.142362594604492,66571.0
1.1200000047683716,2.259999990463257,9.270000457763672,3.25,-13.375,-46.375,-3.0,2.125,1.375,1.149999976158142,2.490000009536743,9.40999984741211,-0.55560302734375,-0.12078857421875,-0.07275390625,-0.81939697265625,100754.1875,25.14375114440918,66611.0
1.0800000429153442,2.619999885559082,9.25,4.375,-12.5625,-47.1875,-4.125,0.375,1.5,1.1399999856948853,2.4700000286102295,9.40999984741211,-0.555419921875,-0.11993408203125,-0.0716552734375,-0.81976318359375,100753.7265625,25.14364242553711,66651.0
0.9700000286102295,2.359999895095825,9.239999771118164,2.5625,-12.25,-47.1875,-4.0,-0.8125,-0.25,1.1399999856948853,2.440000057220459,9.420000076293945,-0.55572509765625,-0.1192626953125,-0.07049560546875,-0.8197021484375,100754.234375,25.14528465270996,66691.0
0.9800000190734863,2.630000114440918,9.239999771118164,3.25,-13.375,-47.5625,-2.75,-0.875,-0.75,1.149999976158142,2.4200000762939453,9.430000305175781,-0.55609130859375,-0.11865234375,-0.06884765625,-0.8197021484375,100754.3984375,25.147106170654297,66731.0
1.1100000143051147,1.8200000524520874,9.270000457763672,3.0,-13.0625,-47.5,-4.125,-1.5625,-0.625,1.159999966621399,2.380000114440918,9.4399995803833,-0.55657958984375,-0.11834716796875,-0.0673828125,-0.819580078125,100754.3125,25.14845848083496,66771.0
1.0399999618530273,1.9600000381469727,9.319999694824219,3.0,-13.0625,-47.5,-3.125,-2.6875,-2.375,1.1699999570846558,2.359999895095825,9.4399995803833,-0.55767822265625,-0.11883544921875,-0.06640625,-0.81884765625,100754.0234375,25.148908615112305,66811.0
1.0700000524520874,2.319999933242798,9.25,2.5625,-12.6875,-47.875,-1.75,-6.125,-5.3125,1.190000057220459,2.359999895095825,9.4399995803833,-0.5594482421875,-0.1199951171875,-0.06494140625,-0.81756591796875,100753.34375,25.149232864379883,66851.0
1.2999999523162842,2.0899999141693115,9.239999771118164,4.0,-12.0625,-46.6875,-3.0625,-6.375,-7.8125,1.2200000286102295,2.3399999141693115,9.4399995803833,-0.56207275390625,-0.1209716796875,-0.06304931640625,-0.81573486328125,100753.3828125,25.148908615112305,66891.0
1.3700000047683716,2.0999999046325684,9.270000457763672,3.25,-12.375,-47.5,-0.0625,-5.375,-15.0,1.2400000095367432,2.3399999141693115,9.430000305175781,-0.56640625,-0.1220703125,-0.06231689453125,-0.81268310546875,100752.78125,25.149810791015625,66931.0
1.4700000286102295,2.140000104904175,9.25,3.0,-12.0625,-48.25,-0.6875,-1.3125,-17.25,1.2400000095367432,2.3499999046325684,9.430000305175781,-0.57098388671875,-0.121826171875,-0.06268310546875,-0.8094482421875,100752.5234375,25.150495529174805,66971.0
1.1399999856948853,2.319999933242798,9.239999771118164,3.0,-12.0625,-48.25,0.125,1.125,-15.4375,1.2200000286102295,2.359999895095825,9.430000305175781,-0.5745849609375,-0.12103271484375,-0.0635986328125,-0.80694580078125,100752.640625,25.15215492248535,67011.0
0.9599999785423279,2.25,9.180000305175781,2.25,-11.6875,-47.5,3.0,2.3125,-6.8125,1.1799999475479126,2.380000114440918,9.430000305175781,-0.576171875,-0.1209716796875,-0.06524658203125,-0.8056640625,100752.765625,25.155149459838867,67051.0
0.7699999809265137,2.450000047683716,9.329999923706055,3.875,-11.5625,-48.0,8.125,-2.0,-5.25,1.1699999570846558,2.4200000762939453,9.420000076293945,-0.577392578125,-0.12298583984375,-0.0672607421875,-0.8043212890625,100752.5078125,25.153345108032227,67091.0
1.090000033378601,3.0199999809265137,9.369999885559082,4.25,-11.75,-47.5625,4.5,-6.25,-6.3125,1.190000057220459,2.4700000286102295,9.40999984741211,-0.57904052734375,-0.1251220703125,-0.06719970703125,-0.80279541015625,100752.78125,25.154300689697266,67131.0
1.3600000143051147,2.6500000953674316,9.220000267028809,2.5,-11.875,-46.75,-3.4375,-5.6875,-5.0625,1.2100000381469727,2.4700000286102295,9.40999984741211,-0.58050537109375,-0.12542724609375,-0.065185546875,-0.8018798828125,100752.9765625,25.155582427978516,67171.0
1.340000033378601,1.9199999570846558,9.170000076293945,2.5,-11.875,-46.75,-3.875,-3.0,-3.125,1.2300000190734863,2.440000057220459,9.40999984741211,-0.5811767578125,-0.12567138671875,-0.0645751953125,-0.8013916015625,100753.0859375,25.1577091217041,67211.0
1.2699999809265137,2.2200000286102295,9.1899995803833,3.6875,-12.0625,-47.1875,3.375,-2.125,-2.625,1.2400000095367432,2.4600000381469727,9.399999618530273,-0.58197021484375,-0.1273193359375,-0.06549072265625,-0.80047607421875,100753.4921875,25.159873962402344,67251.0
1.4199999570846558,2.6500000953674316,9.199999809265137,3.375,-12.1875,-46.75,5.3125,-1.625,-3.0625,1.25,2.490000009536743,9.390000343322754,-0.58251953125,-0.12835693359375,-0.066650390625,-0.7998046875,100753.1953125,25.15863037109375,67291.0
1.3600000143051147,2.5299999713897705,9.1899995803833,2.875,-11.375,-47.1875,2.25,0.9375,-1.125,1.2400000095367432,2.509999990463257,9.390000343322754,-0.58233642578125,-0.1285400390625,-0.06744384765625,-0.79986572265625,100752.8984375,25.15825080871582,67331.0
1.3300000429153442,2.430000066757202,9.220000267028809,3.5,-12.875,-48.0,3.1875,2.375,2.25,1.2400000095367432,2.5299999713897705,9.390000343322754,-0.58148193359375,-0.1285400390625,-0.06842041015625,-0.8004150390625,100752.984375,25.158557891845703,67371.0
1.2000000476837158,2.509999990463257,9.220000267028809,3.5,-12.875,-48.0,4.4375,3.1875,5.5625,1.2300000190734863,2.549999952316284,9.380000114440918,-0.57965087890625,-0.128662109375,-0.07000732421875,-0.8016357421875,100752.9140625,25.161100387573242,67411.0
1.1299999952316284,2.549999952316284,9.279999732971191,3.6875,-12.5625,-47.1875,3.375,3.4375,7.5,1.2200000286102295,2.569999933242798,9.380000114440918,-0.57684326171875,-0.12860107421875,-0.07147216796875,-0.80352783203125,100753.3515625,25.164148330688477,67451.0
1.090000033378601,2.5199999809265137,9.270000457763672,3.375,-11.75,-47.5625,2.9375,2.5,7.0625,1.2100000381469727,2.5799999237060547,9.380000114440918,-0.574951171875,-0.128662109375,-0.0723876953125,-0.80474853515625,100753.1171875,25.16412925720215,67491.0
1.1799999475479126,2.630000114440918,9.210000038146973,4.1875,-12.875,-48.0,2.0,1.875,5.375,1.2100000381469727,2.5899999141693115,9.369999885559082,-0.57379150390625,-0.1285400390625,-0.07281494140625,-0.80560302734375,100752.65625,25.16353416442871,67531.0
1.090000033378601,2.4700000286102295,9.229999542236328,3.5,-13.25,-46.75,0.5625,2.375,5.1875,1.2000000476837158,2.5899999141693115,9.369999885559082,-0.57232666015625,-0.1280517578125,-0.07305908203125,-0.80670166015625,100752.4140625,25.163679122924805,67571.0
1.0700000524520874,2.440000057220459,9.199999809265137,3.5,-13.25,-46.75,1.25,1.25,4.125,1.2000000476837158,2.5899999141693115,9.380000114440918,-0.5711669921875,-0.1279296875,-0.073486328125,-0.80743408203125,100752.4375,25.166095733642578,67611.0
1.190000057220459,2.609999895095825,9.180000305175781,4.5,-13.25,-46.75,1.6875,0.375,2.0625,1.2000000476837158,2.5999999046325684,9.369999885559082,-0.57061767578125,-0.12823486328125,-0.07379150390625,-0.80780029296875,100752.4921875,25.168476104736328,67651.0
1.149999976158142,2.5,9.199999809265137,3.75,-13.5625,-47.25,0.375,0.75,0.375,1.2000000476837158,2.5999999046325684,9.369999885559082,-0.57049560546875,-0.12823486328125,-0.073974609375,-0.807861328125,100752.5078125,25.16853141784668,67691.0
1.0700000524520874,2.5899999141693115,9.239999771118164,3.75,-12.875,-47.25,0.875,0.6875,-1.4375,1.2000000476837158,2.609999895095825,9.369999885559082,-0.57086181640625,-0.12823486328125,-0.0743408203125,-0.80755615234375,100752.328125,25.16856575012207,67731.0
1.2200000286102295,2.7100000381469727,9.220000267028809,3.0625,-13.25,-46.875,0.375,-1.0625,-2.375,1.190000057220459,2.609999895095825,9.369999885559082,-0.57147216796875,-0.1285400390625,-0.0743408203125,-0.80706787109375,100752.3046875,25.168601989746094,67771.0
1.3700000047683716,2.609999895095825,9.199999809265137,3.0625,-13.25,-46.875,-0.8125,-0.3125,-0.5625,1.2000000476837158,2.609999895095825,9.369999885559082,-0.57159423828125,-0.12860107421875,-0.07421875,-0.8070068359375,100752.4609375,25.171506881713867,67811.0
1.149999976158142,2.640000104904175,9.199999809265137,3.0625,-14.0625,-46.875,-3.125,0.5625,0.75,1.2000000476837158,2.5999999046325684,9.369999885559082,-0.57159423828125,-0.12799072265625,-0.0733642578125,-0.80718994140625,100752.5390625,25.173110961914062,67851.0
1.2000000476837158,2.869999885559082,9.220000267028809,3.5,-13.375,-47.6875,0.4375,-0.0625,0.5625,1.2000000476837158,2.5899999141693115,9.380000114440918,-0.57159423828125,-0.127685546875,-0.072998046875,-0.8072509765625,100752.609375,25.172588348388672,67891.0
1.309999942779541,2.2100000381469727,9.239999771118164,3.75,-12.875,-47.25,-4.1875,0.0,0.5,1.2000000476837158,2.569999933242798,9.380000114440918,-0.57171630859375,-0.1270751953125,-0.072021484375,-0.80731201171875,100752.7578125,25.17276954650879,67931.0
1.2799999713897705,2.609999895095825,9.279999732971191,3.75,-13.25,-47.6875,-0.5625,0.125,0.75,1.2000000476837158,2.559999942779541,9.380000114440918,-0.57147216796875,-0.12689208984375,-0.07171630859375,-0.80755615234375,100752.984375,25.17291259765625,67971.0
1.3200000524520874,2.0299999713897705,9.270000457763672,3.75,-13.25,-47.6875,-5.5625,0.625,3.75,1.2000000476837158,2.5399999618530273,9.390000343322754,-0.57061767578125,-0.1259765625,-0.0706787109375,-0.80841064453125,100752.71875,25.174158096313477,68011.0
1.2699999809265137,2.299999952316284,9.180000305175781,4.1875,-12.875,-48.5,-0.0625,1.9375,3.8125,1.2000000476837158,2.5199999809265137,9.390000343322754,-0.5694580078125,-0.12548828125,-0.07073974609375,-0.809326171875,100753.265625,25.176843643188477,68051.0
1.1799999475479126,2.3399999141693115,9.1899995803833,3.5,-12.5625,-47.25,1.875,2.6875,4.0625,1.190000057220459,2.5199999809265137,9.390000343322754,-0.56817626953125,-0.1251220703125,-0.07147216796875,-0.8101806640625,100753.1015625,25.177692413330078,68091.0
1.1299999952316284,2.509999990463257,9.199999809265137,4.875,-12.875,-46.875,2.25,2.4375,4.3125,1.1799999475479126,2.5299999713897705,9.390000343322754,-0.56683349609375,-0.125,-0.0723876953125,-0.81103515625,100753.2421875,25.17832374572754,68131.0
1.090000033378601,2.5899999141693115,9.239999771118164,4.1875,-14.0,-46.875,1.375,2.0625,4.5,1.1799999475479126,2.5399999618530273,9.390000343322754,-0.56549072265625,-0.12481689453125,-0.07293701171875,-0.81195068359375,100752.90625,25.179964065551758,68171.0
1.1399999856948853,2.6500000953674316,9.260000228881836,4.1875,-14.0,-46.875,-0.3125,1.6875,4.125,1.1699999570846558,2.5399999618530273,9.390000343322754,-0.5643310546875,-0.12445068359375,-0.072998046875,-0.8128662109375,100752.515625,25.178882598876953,68211.0
1.2400000095367432,2.630000114440918,9.279999732971191,2.75,-12.5625,-47.25,-2.0,1.75,5.0,1.1699999570846558,2.5299999713897705,9.399999618530273,-0.56298828125,-0.12359619140625,-0.07244873046875,-0.81396484375,100752.3984375,25.17980194091797,68251.0
1.2000000476837158,1.850000023841858,9.180000305175781,3.75,-14.5,-47.5625,-0.75,2.0625,4.5,1.1699999570846558,2.509999990463257,9.399999618530273,-0.561767578125,-0.123291015625,-0.07293701171875,-0.8148193359375,100752.125,25.181642532348633,68291.0
1.090000033378601,2.609999895095825,9.180000305175781,4.25,-13.375,-47.25,0.375,1.6875,2.0625,1.159999966621399,2.5199999809265137,9.399999618530273,-0.5611572265625,-0.12298583984375,-0.07318115234375,-0.81524658203125,100752.59375,25.184743881225586,68331.0
1.1399999856948853,2.3299999237060547,9.270000457763672,3.1875,-14.0,-46.5,1.0,1.5,1.6875,1.149999976158142,2.5199999809265137,9.399999618530273,-0.56060791015625,-0.12298583984375,-0.07415771484375,-0.8155517578125,100752.4140625,25.18478012084961,68371.0
1.0299999713897705,2.569999933242798,9.270000457763672,3.1875,-14.0,-46.5,4.4375,1.75,1.0625,1.1399999856948853,2.549999952316284,9.390000343322754,-0.55999755859375,-0.12347412109375,-0.07562255859375,-0.81573486328125,100752.359375,25.184797286987305,68411.0
1.0,2.5999999046325684,9.220000267028809,3.6875,-13.0,-46.75,3.5,0.375,1.5625,1.1399999856948853,2.569999933242798,9.390000343322754,-0.5594482421875,-0.12408447265625,-0.0765380859375,-0.81591796875,100751.9609375,25.18423843383789,68451.0
1.1699999570846558,2.5899999141693115,9.180000305175781,4.0,-14.0625,-46.75,1.875,0.25,0.9375,1.1399999856948853,2.5899999141693115,9.380000114440918,-0.5592041015625,-0.12445068359375,-0.07708740234375,-0.81597900390625,100752.203125,25.18440055847168,68491.0
1.090000033378601,2.569999933242798,9.210000038146973,4.375,-14.0625,-46.75,2.0625,0.625,-0.625,1.1399999856948853,2.5999999046325684,9.380000114440918,-0.55938720703125,-0.12457275390625,-0.0777587890625,-0.8157958984375,100752.2265625,25.18450927734375,68531.0
1.090000033378601,2.4000000953674316,9.260000228881836,4.375,-14.0625,-46.75,2.375,1.125,-2.0,1.1299999952316284,2.609999895095825,9.380000114440918,-0.559814453125,-0.12451171875,-0.078369140625,-0.81549072265625,100752.171875,25.185752868652344,68571.0
1.1699999570846558,2.1500000953674316,9.210000038146973,5.1875,-13.375,-46.875,0.375,1.125,-1.4375,1.1200000047683716,2.609999895095825,9.380000114440918,-0.5601806640625,-0.12420654296875,-0.07855224609375,-0.81524658203125,100751.71875,25.184959411621094,68611.0
1.0399999618530273,2.359999895095825,9.239999771118164,4.0,-13.375,-46.1875,3.25,0.4375,-1.25,1.1200000047683716,2.619999885559082,9.380000114440918,-0.56036376953125,-0.124755859375,-0.0794677734375,-0.81494140625,100751.8203125,25.185501098632812,68651.0
0.9700000286102295,2.759999990463257,9.300000190734863,4.0,-13.6875,-47.1875,2.0625,-0.1875,-1.0,1.1100000143051147,2.6500000953674316,9.369999885559082,-0.5606689453125,-0.124755859375,-0.0794677734375,-0.81475830078125,100751.7734375,25.186492919921875,68691.0
1.149999976158142,2.2200000286102295,9.229999542236328,5.5,-14.5,-47.1875,-3.875,0.125,-0.4375,1.1100000143051147,2.630000114440918,9.380000114440918,-0.5606689453125,-0.12432861328125,-0.0792236328125,-0.8148193359375,100751.765625,25.18609619140625,68731.0
1.0199999809265137,2.5799999237060547,9.25,5.5,-14.5,-47.1875,-1.625,1.1875,0.25,1.1100000143051147,2.619999885559082,9.380000114440918,-0.560791015625,-0.12371826171875,-0.0787353515625,-0.81488037109375,100751.3203125,25.18752098083496,68771.0
1.0499999523162842,1.9199999570846558,9.069999694824219,3.6875,-14.0625,-46.5,10.3125,0.8125,0.6875,1.100000023841858,2.640000104904175,9.369999885559082,-0.56036376953125,-0.1246337890625,-0.08026123046875,-0.81488037109375,100751.3125,25.18916130065918,68811.0
1.1299999952316284,2.4700000286102295,9.140000343322754,4.0,-13.375,-46.5,1.5625,0.3125,1.5,1.1100000143051147,2.6500000953674316,9.369999885559082,-0.5599365234375,-0.1248779296875,-0.0804443359375,-0.81512451171875,100751.8828125,25.18981170654297,68851.0
1.1399999856948853,2.640000104904175,9.1899995803833,4.6875,-14.0625,-47.1875,-0.1875,-0.6875,1.1875,1.1100000143051147,2.6500000953674316,9.369999885559082,-0.55963134765625,-0.125,-0.08026123046875,-0.8153076171875,100752.1640625,25.190317153930664,68891.0
1.1799999475479126,2.799999952316284,9.170000076293945,4.375,-14.5,-46.75,-0.5,0.8125,1.5,1.1100000143051147,2.6500000953674316,9.369999885559082,-0.55926513671875,-0.1246337890625,-0.07989501953125,-0.815673828125,100752.1640625,25.190677642822266,68931.0
1.159999966621399,1.8799999952316284,9.180000305175781,4.375,-14.5,-46.75,2.8125,1.3125,1.25,1.1100000143051147,2.640000104904175,9.369999885559082,-0.55877685546875,-0.12493896484375,-0.08087158203125,-0.81585693359375,100752.515625,25.190948486328125,68971.0
1.090000033378601,2.619999885559082,9.180000305175781,4.6875,-14.5,-47.1875,1.5,1.25,1.4375,1.1100000143051147,2.6600000858306885,9.369999885559082,-0.55816650390625,-0.125,-0.08154296875,-0.816162109375,100752.171875,25.192895889282227,69011.0
1.1100000143051147,2.490000009536743,9.170000076293945,3.6875,-14.0625,-46.5,0.3125,1.1875,2.1875,1.100000023841858,2.6700000762939453,9.359999656677246,-0.5574951171875,-0.12481689453125,-0.0819091796875,-0.816650390625,100752.2734375,25.19377899169922,69051.0
0.9700000286102295,2.4800000190734863,9.25,4.0,-14.0625,-47.1875,0.5,1.4375,2.3125,1.100000023841858,2.6700000762939453,9.359999656677246,-0.55682373046875,-0.124755859375,-0.08203125,-0.81707763671875,100752.0546875,25.193273544311523,69091.0
1.0399999618530273,2.509999990463257,9.260000228881836,4.375,-13.6875,-46.0625,1.0625,0.375,1.5,1.100000023841858,2.6700000762939453,9.359999656677246,-0.55657958984375,-0.1248779296875,-0.082275390625,-0.81719970703125,100752.0703125,25.194625854492188,69131.0
1.1699999570846558,2.7200000286102295,9.210000038146973,4.375,-13.6875,-46.0625,1.6875,0.375,0.0625,1.100000023841858,2.680000066757202,9.359999656677246,-0.5565185546875,-0.1251220703125,-0.08270263671875,-0.81719970703125,100751.8828125,25.195077896118164,69171.0
1.0499999523162842,2.759999990463257,9.170000076293945,4.0,-13.6875,-46.75,0.8125,0.9375,0.125,1.090000033378601,2.690000057220459,9.359999656677246,-0.55645751953125,-0.125,-0.0830078125,-0.81719970703125,100752.078125,25.197710037231445,69211.0
1.0399999618530273,2.6600000858306885,9.180000305175781,4.375,-13.6875,-46.75,-0.125,0.4375,0.25,1.090000033378601,2.690000057220459,9.359999656677246,-0.55645751953125,-0.125,-0.08306884765625,-0.81719970703125,100752.203125,25.196809768676758,69251.0
1.0800000429153442,2.5899999141693115,9.220000267028809,4.375,-14.0625,-46.75,-0.375,0.5625,0.375,1.090000033378601,2.690000057220459,9.359999656677246,-0.55645751953125,-0.12481689453125,-0.0831298828125,-0.8172607421875,100752.3671875,25.197277069091797,69291.0
1.1299999952316284,2.5399999618530273,9.180000305175781,4.0,-14.5,-48.75,0.25,0.75,0.25,1.090000033378601,2.690000057220459,9.359999656677246,-0.556396484375,-0.12457275390625,-0.08343505859375,-0.8172607421875,100752.90625,25.19821548461914,69331.0
1.0199999809265137,2.630000114440918,9.210000038146973,4.0,-14.5,-48.75,1.1875,0.625,-0.25,1.0800000429153442,2.690000057220459,9.359999656677246,-0.55645751953125,-0.1246337890625,-0.083740234375,-0.81719970703125,100752.5390625,25.197765350341797,69371.0
1.0,2.75,9.180000305175781,5.0625,-14.5,-46.75,1.25,1.125,-0.75,1.0700000524520874,2.700000047683716,9.359999656677246,-0.5565185546875,-0.1243896484375,-0.08428955078125,-0.817138671875,100752.671875,25.201461791992188,69411.0
0.9599999785423279,2.7100000381469727,9.1899995803833,4.6875,-14.0625,-47.5625,0.0625,0.75,-0.4375,1.0700000524520874,2.700000047683716,9.359999656677246,-0.5565185546875,-0.12432861328125,-0.08441162109375,-0.817138671875,100752.640625,25.20193099975586,69451.0
0.9700000286102295,2.640000104904175,9.199999809265137,4.375,-13.6875,-46.375,-0.3125,-0.1875,0.4375,1.0700000524520874,2.700000047683716,9.359999656677246,-0.55645751953125,-0.12432861328125,-0.08441162109375,-0.81719970703125,100752.359375,25.202272415161133,69491.0
0.9800000190734863,2.6600000858306885,9.199999809265137,4.0,-14.875,-47.1875,-0.25,0.0,0.9375,1.0700000524520874,2.700000047683716,9.359999656677246,-0.5562744140625,-0.12432861328125,-0.0843505859375,-0.81732177734375,100752.40625,25.203121185302734,69531.0
1.0399999618530273,2.619999885559082,9.220000267028809,4.0,-14.875,-47.1875,-0.6875,-0.25,0.125,1.0700000524520874,2.700000047683716,9.359999656677246,-0.5562744140625,-0.12420654296875,-0.084228515625,-0.81732177734375,100752.359375,25.203752517700195,69571.0
1.0199999809265137,2.6500000953674316,9.220000267028809,4.6875,-14.0625,-46.75,-0.125,-0.1875,0.125,1.0700000524520874,2.700000047683716,9.359999656677246,-0.5562744140625,-0.12420654296875,-0.084228515625,-0.81732177734375,100752.4296875,25.205951690673828,69611.0
1.0399999618530273,2.640000104904175,9.180000305175781,4.0,-13.0,-46.75,-0.125,-0.1875,0.5,1.0700000524520874,2.700000047683716,9.359999656677246,-0.55621337890625,-0.12420654296875,-0.084228515625,-0.8173828125,100751.9921875,25.205303192138672,69651.0
1.0399999618530273,2.5899999141693115,9.229999542236328,4.375,-14.0625,-46.375,0.0625,0.125,0.9375,1.0700000524520874,2.700000047683716,9.359999656677246,-0.55596923828125,-0.12420654296875,-0.08416748046875,-0.81756591796875,100751.84375,25.204797744750977,69691.0
1.0299999713897705,2.7100000381469727,9.25,4.6875,-14.0625,-46.75,0.375,0.25,1.0,1.0700000524520874,2.700000047683716,9.359999656677246,-0.55572509765625,-0.124267578125,-0.08416748046875,-0.8177490234375,100752.0078125,25.206745147705078,69731.0
1.0399999618530273,2.6700000762939453,9.25,4.6875,-14.0625,-46.75,-0.5,0.0,1.0,1.0700000524520874,2.700000047683716,9.359999656677246,-0.555419921875,-0.12420654296875,-0.08404541015625,-0.81793212890625,100751.203125,25.207035064697266,69771.0
0.9599999785423279,2.5799999237060547,9.229999542236328,4.375,-14.0625,-46.375,-1.625,-0.6875,1.125,1.0700000524520874,2.690000057220459,9.359999656677246,-0.55523681640625,-0.1240234375,-0.08349609375,-0.818115234375,100751.53125,25.208423614501953,69811.0
1.149999976158142,2.5,9.220000267028809,4.6875,-14.0625,-46.75,-1.5,-2.0,0.25,1.0800000429153442,2.680000066757202,9.359999656677246,-0.5552978515625,-0.124267578125,-0.08270263671875,-0.818115234375,100751.7734375,25.20945167541504,69851.0
1.1200000047683716,2.549999952316284,9.170000076293945,4.0,-14.875,-48.0,-0.9375,-0.9375,-0.5,1.090000033378601,2.6700000762939453,9.369999885559082,-0.55548095703125,-0.12432861328125,-0.08221435546875,-0.81805419921875,100751.6640625,25.21022605895996,69891.0
1.1100000143051147,2.549999952316284,9.229999542236328,4.0,-13.6875,-46.75,-1.375,-0.75,-0.75,1.100000023841858,2.6700000762939453,9.369999885559082,-0.55572509765625,-0.12420654296875,-0.08172607421875,-0.81793212890625,100751.9765625,25.212553024291992,69931.0
1.1299999952316284,2.5299999713897705,9.270000457763672,4.0,-13.6875,-46.75,-1.0,-0.1875,0.3125,1.100000023841858,2.6600000858306885,9.369999885559082,-0.55572509765625,-0.1240234375,-0.08148193359375,-0.8179931640625,100752.0,25.213130950927734,69971.0
1.1100000143051147,2.5799999237060547,9.210000038146973,4.6875,-14.0625,-46.375,-0.5625,0.25,1.0,1.100000023841858,2.6500000953674316,9.369999885559082,-0.55548095703125,-0.1240234375,-0.081298828125,-0.8182373046875,100752.0234375,25.2124080657959,70011.0
0.9900000095367432,2.509999990463257,9.199999809265137,3.6875,-14.5,-48.75,-1.25,0.8125,0.5,1.100000023841858,2.6500000953674316,9.369999885559082,-0.5555419921875,-0.1236572265625,-0.08099365234375,-0.8182373046875,100752.3125,25.214176177978516,70051.0
1.1399999856948853,2.490000009536743,9.229999542236328,4.6875,-13.6875,-47.1875,-0.75,0.5625,-0.5,1.100000023841858,2.640000104904175,9.369999885559082,-0.5555419921875,-0.12347412109375,-0.08099365234375,-0.81829833984375,100752.421875,25.216087341308594,70091.0
1.0299999713897705,2.5299999713897705,9.229999542236328,4.375,-14.0625,-48.375,-0.375,0.875,0.125,1.090000033378601,2.640000104904175,9.369999885559082,-0.55548095703125,-0.123291015625,-0.08111572265625,-0.81829833984375,100752.3359375,25.215782165527344,70131.0
1.0299999713897705,2.4600000381469727,9.210000038146973,4.375,-14.0625,-48.375,-0.0625,0.375,1.0625,1.090000033378601,2.640000104904175,9.369999885559082,-0.55517578125,-0.123291015625,-0.0810546875,-0.81854248046875,100752.8359375,25.215547561645508,70171.0
1.0399999618530273,2.509999990463257,9.220000267028809,5.0625,-13.375,-46.75,0.4375,0.0,1.125,1.090000033378601,2.640000104904175,9.369999885559082,-0.55499267578125,-0.12335205078125,-0.08099365234375,-0.81866455078125,100753.140625,25.215961456298828,70211.0
1.1200000047683716,2.549999952316284,9.25,4.375,-14.0625,-47.5625,0.375,-0.3125,-0.1875,1.090000033378601,2.640000104904175,9.369999885559082,-0.55499267578125,-0.12335205078125,-0.08099365234375,-0.81866455078125,100752.703125,25.21511459350586,70251.0
1.1100000143051147,2.5299999713897705,9.239999771118164,4.0,-14.5,-48.0,-0.375,0.3125,-0.5625,1.090000033378601,2.640000104904175,9.369999885559082,-0.5550537109375,-0.12335205078125,-0.0810546875,-0.81866455078125,100752.140625,25.215042114257812,70291.0
1.100000023841858,2.4700000286102295,9.220000267028809,4.6875,-13.0,-48.75,0.25,0.25,-0.0625,1.090000033378601,2.640000104904175,9.369999885559082,-0.5550537109375,-0.12335205078125,-0.0810546875,-0.81866455078125,100752.125,25.21615982055664,70331.0
1.1100000143051147,2.4600000381469727,9.199999809265137,4.6875,-13.0,-48.75,1.375,0.8125,0.0,1.090000033378601,2.640000104904175,9.369999885559082,-0.554931640625,-0.123291015625,-0.08154296875,-0.81866455078125,100752.2109375,25.216989517211914,70371.0
1.059999942779541,2.549999952316284,9.220000267028809,4.0,-13.6875,-47.25,1.3125,0.875,-0.125,1.0800000429153442,2.6500000953674316,9.369999885559082,-0.55487060546875,-0.123291015625,-0.08209228515625,-0.81866455078125,100752.6328125,25.218198776245117,70411.0
1.059999942779541,2.6600000858306885,9.1899995803833,4.375,-14.5,-47.25,1.0625,1.375,0.4375,1.0800000429153442,2.6600000858306885,9.369999885559082,-0.55474853515625,-0.12322998046875,-0.08258056640625,-0.81866455078125,100752.6640625,25.219099044799805,70451.0
1.0099999904632568,2.619999885559082,9.260000228881836,4.0,-14.0625,-46.75,0.625,0.3125,0.625,1.0800000429153442,2.6600000858306885,9.369999885559082,-0.5546875,-0.123291015625,-0.08270263671875,-0.8187255859375,100752.359375,25.21919059753418,70491.0
1.1100000143051147,2.5799999237060547,9.210000038146973,4.0,-14.0625,-46.75,1.125,0.1875,0.3125,1.0800000429153442,2.6700000762939453,9.369999885559082,-0.55462646484375,-0.12335205078125,-0.08294677734375,-0.8187255859375,100752.4609375,25.219261169433594,70531.0
1.0299999713897705,2.609999895095825,9.220000267028809,3.6875,-13.6875,-47.25,0.125,1.1875,-0.1875,1.0700000524520874,2.6700000762939453,9.369999885559082,-0.55462646484375,-0.123046875,-0.0831298828125,-0.8187255859375,100751.890625,25.219316482543945,70571.0
0.9900000095367432,2.630000114440918,9.220000267028809,4.6875,-14.0625,-46.75,-0.8125,0.75,-0.4375,1.059999942779541,2.6700000762939453,9.369999885559082,-0.55462646484375,-0.1226806640625,-0.0830078125,-0.81878662109375,100751.2890625,25.21763801574707,70611.0
0.9900000095367432,2.640000104904175,9.25,3.6875,-14.0625,-47.5625,-1.125,0.75,0.75,1.059999942779541,2.6600000858306885,9.369999885559082,-0.55450439453125,-0.122314453125,-0.082763671875,-0.8189697265625,100751.4375,25.218666076660156,70651.0
0.9700000286102295,2.630000114440918,9.25,2.875,-13.375,-47.25,-1.6875,0.5,1.0625,1.059999942779541,2.6500000953674316,9.369999885559082,-0.55426025390625,-0.1219482421875,-0.08233642578125,-0.81927490234375,100751.625,25.22003746032715,70691.0
0.8899999856948853,2.609999895095825,9.229999542236328,2.875,-13.375,-47.25,-1.9375,0.5,1.0625,1.059999942779541,2.640000104904175,9.380000114440918,-0.5540771484375,-0.12158203125,-0.081787109375,-0.8194580078125,100751.71875,25.22220230102539,70731.0
0.9800000190734863,2.630000114440918,9.210000038146973,4.25,-14.0625,-46.25,-1.375,0.25,0.4375,1.059999942779541,2.630000114440918,9.380000114440918,-0.55413818359375,-0.121337890625,-0.08135986328125,-0.81951904296875,100752.0078125,25.223247528076172,70771.0
0.9300000071525574,2.640000104904175,9.199999809265137,4.25,-13.6875,-46.25,-2.5625,-0.125,0.25,1.059999942779541,2.609999895095825,9.390000343322754,-0.55419921875,-0.120849609375,-0.08062744140625,-0.819580078125,100752.2578125,25.22288703918457,70811.0
0.949999988079071,2.569999933242798,9.25,5.0625,-13.6875,-47.1875,-2.9375,-0.5625,0.125,1.059999942779541,2.5999999046325684,9.390000343322754,-0.5543212890625,-0.1204833984375,-0.0797119140625,-0.8197021484375,100751.921875,25.22146224975586,70851.0
0.9700000286102295,2.4800000190734863,9.239999771118164,4.25,-13.0,-46.75,-2.5,-1.3125,0.625,1.0700000524520874,2.5799999237060547,9.390000343322754,-0.5543212890625,-0.12042236328125,-0.0789794921875,-0.81976318359375,100752.6328125,25.222129821777344,70891.0
1.0199999809265137,2.4700000286102295,9.270000457763672,4.25,-13.0,-46.75,-1.9375,-1.4375,0.25,1.0800000429153442,2.569999933242798,9.399999618530273,-0.554443359375,-0.1204833984375,-0.078125,-0.81976318359375,100752.2265625,25.223194122314453,70931.0
1.0399999618530273,2.4600000381469727,9.260000228881836,4.25,-13.375,-46.0625,-2.125,-1.75,0.1875,1.090000033378601,2.549999952316284,9.399999618530273,-0.55462646484375,-0.12060546875,-0.076904296875,-0.8197021484375,100752.3515625,25.22458267211914,70971.0
1.1200000047683716,2.549999952316284,9.289999961853027,4.25,-14.0,-47.5625,-2.9375,-1.6875,0.3125,1.100000023841858,2.5299999713897705,9.399999618530273,-0.5546875,-0.12017822265625,-0.075439453125,-0.81988525390625,100752.09375,25.22330093383789,71011.0
1.2599999904632568,2.5399999618530273,9.520000457763672,3.5625,-14.5,-46.375,-6.5,-0.875,1.8125,1.1100000143051147,2.5,9.40999984741211,-0.55413818359375,-0.1190185546875,-0.0731201171875,-0.82061767578125,100752.5078125,25.224077224731445,71051.0
1.2899999618530273,3.130000114440918,9.5600004196167,3.875,-12.5625,-47.1875,-11.625,-0.0625,5.8125,1.1200000047683716,2.450000047683716,9.420000076293945,-0.55303955078125,-0.11700439453125,-0.06964111328125,-0.82196044921875,100752.1328125,25.224077224731445,71091.0
1.4500000476837158,2.3499999046325684,9.729999542236328,3.875,-12.5625,-47.1875,-26.3125,-0.6875,13.0625,1.1399999856948853,2.299999952316284,9.460000038146973,-0.54998779296875,-0.11248779296875,-0.06158447265625,-0.82525634765625,100752.203125,25.226404190063477,71131.0
1.600000023841858,1.909999966621399,9.670000076293945,3.5625,-12.6875,-47.5625,-29.6875,-3.5,24.125,1.1799999475479126,2.0999999046325684,9.5,-0.5440673828125,-0.1082763671875,-0.05157470703125,-0.8304443359375,100752.546875,25.229290008544922,71171.0
1.850000023841858,1.559999942779541,9.479999542236328,2.875,-12.25,-48.375,-34.125,-0.6875,35.125,1.2300000190734863,1.8700000047683716,9.539999961853027,-0.5322265625,-0.1011962890625,-0.03839111328125,-0.83966064453125,100752.2265625,25.230876922607422,71211.0
1.75,1.690000057220459,9.479999542236328,2.5625,-12.5625,-47.5625,-31.1875,4.375,45.0625,1.2699999809265137,1.6200000047683716,9.579999923706055,-0.52294921875,-0.09613037109375,-0.03045654296875,-0.84637451171875,100751.9453125,25.232067108154297,71251.0
1.4199999570846558,1.2999999523162842,9.180000305175781,3.0625,-10.25,-47.0625,-35.375,8.5,52.375,1.2799999713897705,1.340000033378601,9.619999885559082,-0.5087890625,-0.0880126953125,-0.019775390625,-0.85614013671875,100752.171875,25.233545303344727,71291.0
1.0800000429153442,0.6600000262260437,9.109999656677246,3.0625,-10.25,-47.0625,-33.8125,9.0,55.375,1.2699999809265137,1.0700000524520874,9.65999984741211,-0.4935302734375,-0.0802001953125,-0.01019287109375,-0.865966796875,100752.0546875,25.231182098388672,71331.0
0.8999999761581421,0.9300000071525574,9.180000305175781,3.1875,-8.25,-48.5625,-27.25,6.3125,56.1875,1.25,0.8299999833106995,9.680000305175781,-0.47772216796875,-0.07415771484375,-0.00177001953125,-0.8753662109375,100752.6953125,25.23056983947754,71371.0
1.0,0.7400000095367432,9.300000190734863,1.1875,-8.1875,-48.75,-25.625,2.25,56.75,1.25,0.6100000143051147,9.699999809265137,-0.46148681640625,-0.0693359375,0.006591796875,-0.8843994140625,100752.453125,25.228368759155273,71411.0
1.2300000190734863,0.3700000047683716,9.329999923706055,2.25,-8.0,-49.1875,-27.8125,0.1875,56.75,1.2699999809265137,0.38999998569488525,9.710000038146973,-0.44525146484375,-0.06488037109375,0.01617431640625,-0.8929443359375,100752.6640625,25.229036331176758,71451.0
1.4199999570846558,0.0,9.289999961853027,0.6875,-7.75,-49.5,-28.9375,-0.875,51.25,1.2799999713897705,0.1599999964237213,9.720000267028809,-0.43060302734375,-0.0604248046875,0.026123046875,-0.900146484375,100752.3984375,25.2283878326416,71491.0
1.6699999570846558,-0.36000001430511475,9.420000076293945,0.6875,-7.75,-49.5,-28.25,1.0,44.5,1.2799999713897705,-0.05999999865889549,9.720000267028809,-0.4176025390625,-0.0555419921875,0.0352783203125,-0.90625,100752.2265625,25.22846031188965,71531.0
1.3700000047683716,-0.7400000095367432,9.5600004196167,0.75,-7.75,-50.1875,-23.75,3.0,41.625,1.2599999904632568,-0.27000001072883606,9.720000267028809,-0.4053955078125,-0.05108642578125,0.042724609375,-0.9117431640625,100752.203125,25.229686737060547,71571.0
1.4800000190734863,-0.550000011920929,9.630000114440918,0.6875,-8.6875,-49.75,-19.5,-1.6875,36.3125,1.25,-0.4300000071525574,9.710000038146973,-0.39483642578125,-0.048828125,0.050048828125,-0.91607666015625,100752.578125,25.230587005615234,71611.0
1.8200000524520874,-0.9900000095367432,9.829999923706055,2.0625,-7.6875,-49.75,-22.3125,-5.4375,27.8125,1.2799999713897705,-0.6000000238418579,9.699999809265137,-0.38665771484375,-0.04736328125,0.058349609375,-0.91912841796875,100752.9296875,25.231849670410156,71651.0
2.009999990463257,-1.2999999523162842,9.510000228881836,1.5,-6.5625,-50.0625,-22.5625,-5.8125,21.625,1.309999942779541,-0.7699999809265137,9.680000305175781,-0.38037109375,-0.0457763671875,0.06640625,-0.92132568359375,100752.6953125,25.232229232788086,71691.0
2.109999895095825,-1.7100000381469727,9.399999618530273,1.5,-6.5625,-50.0625,-21.6875,-5.25,16.5,1.3300000429153442,-0.9300000071525574,9.670000076293945,-0.37548828125,-0.04425048828125,0.07391357421875,-0.92279052734375,100752.9375,25.234230041503906,71731.0
2.140000104904175,-1.840000033378601,9.199999809265137,0.5,-6.0,-50.0625,-17.125,-4.4375,14.625,1.350000023841858,-1.0700000524520874,9.649999618530273,-0.3709716796875,-0.0430908203125,0.08001708984375,-0.9241943359375,100753.4140625,25.23516845703125,71771.0
2.0199999809265137,-2.0,9.15999984741211,1.25,-6.375,-49.0,-13.25,-4.1875,16.625,1.409999966621399,-1.2300000190734863,9.619999885559082,-0.365478515625,-0.04437255859375,0.09014892578125,-0.9254150390625,100754.0078125,25.23700714111328,71811.0
1.9500000476837158,-2.0,9.15999984741211,0.375,-4.1875,-49.875,-6.25,-7.0625,19.5,1.4800000190734863,-1.3799999952316284,9.59000015258789,-0.35894775390625,-0.04638671875,0.095703125,-0.92730712890625,100753.7578125,25.237241744995117,71851.0
2.200000047683716,-1.5099999904632568,9.100000381469727,1.0625,-5.0625,-50.375,-3.125,-9.6875,22.875,1.5299999713897705,-1.4299999475479126,9.569999694824219,-0.3514404296875,-0.0482177734375,0.0982666015625,-0.9298095703125,100753.484375,25.237422943115234,71891.0
2.4600000381469727,-1.6799999475479126,8.949999809265137,1.0625,-5.0625,-50.375,-2.75,-8.5625,23.9375,1.5700000524520874,-1.4800000190734863,9.5600004196167,-0.34375,-0.0496826171875,0.10028076171875,-0.932373046875,100753.21875,25.237567901611328,71931.0
2.259999990463257,-1.7599999904632568,9.260000228881836,-0.5625,-4.6875,-50.1875,1.6875,-3.9375,21.75,1.6100000143051147,-1.5099999904632568,9.550000190734863,-0.3367919921875,-0.051513671875,0.101318359375,-0.9346923828125,100752.8359375,25.23650360107422,71971.0
1.6299999952316284,-1.659999966621399,9.699999809265137,-0.375,-5.25,-50.6875,4.125,-6.6875,20.0625,1.6200000047683716,-1.5099999904632568,9.550000190734863,-0.3302001953125,-0.05352783203125,0.10137939453125,-0.9368896484375,100752.9140625,25.235132217407227,72011.0
1.7799999713897705,-1.409999966621399,10.020000457763672,0.25,-4.6875,-49.875,0.4375,-10.8125,18.5,1.659999966621399,-1.5199999809265137,9.539999961853027,-0.32391357421875,-0.05615234375,0.10321044921875,-0.93878173828125,100753.1796875,25.235258102416992,72051.0
1.940000057220459,-2.0399999618530273,10.720000267028809,-0.1875,-6.0625,-49.75,0.4375,-9.625,18.6875,1.7100000381469727,-1.5499999523162842,9.529999732971191,-0.3177490234375,-0.0584716796875,0.1048583984375,-0.9405517578125,100752.8125,25.23478889465332,72091.0
1.940000057220459,-2.5799999237060547,9.729999542236328,-0.1875,-6.0625,-49.75,5.125,-7.0625,16.5625,1.7400000095367432,-1.559999942779541,9.520000457763672,-0.3121337890625,-0.06060791015625,0.1041259765625,-0.9423828125,100752.0390625,25.232698440551758,72131.0
2.0199999809265137,-2.119999885559082,9.520000457763672,-1.0625,-5.5625,-51.0,10.1875,-1.5,16.875,1.75,-1.5299999713897705,9.520000457763672,-0.30645751953125,-0.0614013671875,0.101318359375,-0.9444580078125,100752.0625,25.232282638549805,72171.0
1.6699999570846558,-1.9199999570846558,9.510000228881836,0.0,-6.6875,-49.5625,8.9375,0.625,17.25,1.7300000190734863,-1.4800000190734863,9.529999732971191,-0.30084228515625,-0.0615234375,0.0985107421875,-0.94659423828125,100751.5546875,25.229650497436523,72211.0
1.8200000524520874,-2.119999885559082,9.329999923706055,-1.0,-5.5,-49.1875,14.25,3.4375,16.0,1.7000000476837158,-1.4299999475479126,9.550000190734863,-0.2955322265625,-0.0611572265625,0.09381103515625,-0.94873046875,100751.9765625,25.232877731323242,72251.0
1.5499999523162842,-1.2599999904632568,8.869999885559082,-1.0,-5.5,-49.1875,14.25,6.125,15.5,1.649999976158142,-1.350000023841858,9.5600004196167,-0.290771484375,-0.05950927734375,0.09039306640625,-0.95068359375,100752.234375,25.23358154296875,72291.0
1.3600000143051147,-1.9600000381469727,8.850000381469727,-0.375,-6.5,-50.5625,5.75,7.5625,14.1875,1.590000033378601,-1.3300000429153442,9.579999923706055,-0.286376953125,-0.057373046875,0.088134765625,-0.95233154296875,100752.5625,25.234663009643555,72331.0
0.9700000286102295,-2.2300000190734863,8.869999885559082,0.0625,-7.1875,-50.25,6.125,4.4375,11.4375,1.5399999618530273,-1.309999942779541,9.59000015258789,-0.282958984375,-0.0567626953125,0.08551025390625,-0.95361328125,100752.4921875,25.233184814453125,72371.0
0.9900000095367432,-1.940000057220459,8.970000267028809,0.875,-7.5,-49.875,14.125,-0.4375,6.875,1.5299999713897705,-1.2400000095367432,9.600000381469727,-0.28045654296875,-0.0577392578125,0.0828857421875,-0.95452880859375,100752.4375,25.23322105407715,72411.0
1.4199999570846558,-1.649999976158142,9.1899995803833,-0.75,-7.6875,-50.375,-9.5,-2.1875,7.375,1.5299999713897705,-1.25,9.600000381469727,-0.2779541015625,-0.0572509765625,0.08502197265625,-0.95513916015625,100753.0625,25.235565185546875,72451.0
1.1100000143051147,-2.069999933242798,9.4399995803833,-0.75,-7.6875,-50.375,-3.5,-1.25,10.125,1.5299999713897705,-1.2799999713897705,9.59000015258789,-0.274169921875,-0.0572509765625,0.08648681640625,-0.9560546875,100752.3984375,25.23558235168457,72491.0
1.2000000476837158,-1.8600000143051147,9.180000305175781,2.1875,-8.5,-50.875,-2.8125,-1.9375,15.4375,1.5199999809265137,-1.3600000143051147,9.59000015258789,-0.2689208984375,-0.05572509765625,0.0899658203125,-0.95733642578125,100752.21875,25.237333297729492,72531.0
1.149999976158142,-1.899999976158142,9.210000038146973,0.5,-7.5625,-51.0625,-7.3125,-1.125,15.9375,1.5099999904632568,-1.4299999475479126,9.579999923706055,-0.2637939453125,-0.05340576171875,0.09478759765625,-0.95843505859375,100751.8984375,25.237476348876953,72571.0
1.4199999570846558,-2.2899999618530273,9.300000190734863,0.875,-8.0,-50.25,-10.875,2.625,12.0,1.4700000286102295,-1.559999942779541,9.5600004196167,-0.2603759765625,-0.0506591796875,0.0989990234375,-0.9591064453125,100752.3515625,25.23818016052246,72611.0
1.1100000143051147,-2.680000066757202,9.680000305175781,1.0,-7.5,-51.1875,-9.1875,5.3125,7.3125,1.440000057220459,-1.6100000143051147,9.5600004196167,-0.259033203125,-0.04803466796875,0.10089111328125,-0.9593505859375,100752.6484375,25.239280700683594,72651.0
1.149999976158142,-2.5999999046325684,9.489999771118164,1.0,-7.5,-51.1875,-2.8125,6.5625,2.4375,1.3899999856948853,-1.6799999475479126,9.550000190734863,-0.258056640625,-0.04412841796875,0.10400390625,-0.95953369140625,100751.8984375,25.23951530456543,72691.0
1.190000057220459,-2.180000066757202,10.149999618530273,0.6875,-7.1875,-51.1875,5.3125,12.0,8.4375,1.2899999618530273,-1.7100000381469727,9.5600004196167,-0.25384521484375,-0.0391845703125,0.1004638671875,-0.961181640625,100752.578125,25.243175506591797,72731.0
1.1100000143051147,-2.359999895095825,10.4399995803833,2.5625,-7.1875,-50.0625,11.8125,11.6875,18.125,1.190000057220459,-1.659999966621399,9.59000015258789,-0.24835205078125,-0.03631591796875,0.094970703125,-0.96331787109375,100752.5703125,25.241281509399414,72771.0
1.190000057220459,-1.5499999523162842,10.449999809265137,2.6875,-7.375,-50.0625,13.8125,9.1875,15.25,1.1100000143051147,-1.5700000524520874,9.609999656677246,-0.244384765625,-0.03436279296875,0.09051513671875,-0.96484375,100752.28125,25.24045181274414,72811.0
1.5299999713897705,-1.309999942779541,10.670000076293945,2.75,-8.375,-51.75,7.8125,8.375,8.5,1.059999942779541,-1.5299999713897705,9.619999885559082,-0.24261474609375,-0.0322265625,0.0885009765625,-0.96551513671875,100752.4375,25.241552352905273,72851.0
0.7300000190734863,-1.5700000524520874,10.3100004196167,2.75,-8.375,-51.75,7.3125,7.3125,5.875,1.0,-1.5,9.630000114440918,-0.2410888671875,-0.03057861328125,0.08563232421875,-0.96624755859375,100752.53125,25.24295997619629,72891.0
0.8600000143051147,-1.3700000047683716,10.479999542236328,4.25,-8.75,-52.25,6.6875,0.25,-0.4375,0.9800000190734863,-1.440000057220459,9.640000343322754,-0.24127197265625,-0.03125,0.0833740234375,-0.96636962890625,100752.0625,25.242868423461914,72931.0
1.1100000143051147,-0.6600000262260437,8.819999694824219,3.1875,-9.0,-51.25,7.875,-3.25,-3.9375,1.0,-1.3899999856948853,9.649999618530273,-0.242431640625,-0.0328369140625,0.08160400390625,-0.9661865234375,100752.1640625,25.246259689331055,72971.0
0.8500000238418579,-0.7099999785423279,8.270000457763672,4.75,-9.375,-51.375,-4.5,-2.5,-4.6875,1.0199999809265137,-1.3899999856948853,9.649999618530273,-0.24407958984375,-0.03350830078125,0.08349609375,-0.965576171875,100752.3515625,25.247648239135742,73011.0
1.2100000381469727,-1.3200000524520874,8.149999618530273,4.5,-10.0,-51.875,-8.9375,-4.875,-6.375,1.0499999523162842,-1.440000057220459,9.640000343322754,-0.24615478515625,-0.03448486328125,0.086669921875,-0.9647216796875,100753.265625,25.25098419189453,73051.0
1.3200000524520874,-1.2799999713897705,8.289999961853027,4.5,-10.0,-51.875,-7.375,-3.9375,-5.1875,1.0800000429153442,-1.4900000095367432,9.630000114440918,-0.24774169921875,-0.035400390625,0.08941650390625,-0.96405029296875,100752.734375,25.247737884521484,73091.0
1.559999942779541,-1.559999942779541,8.569999694824219,3.375,-9.25,-52.0625,-6.0625,-5.125,-4.1875,1.1200000047683716,-1.5299999713897705,9.609999656677246,-0.24945068359375,-0.03729248046875,0.09222412109375,-0.9632568359375,100752.6015625,25.24701690673828,73131.0
1.7200000286102295,-1.3799999952316284,8.960000038146973,2.6875,-9.6875,-52.0625,-5.5,-8.0,-5.875,1.159999966621399,-1.559999942779541,9.600000381469727,-0.25091552734375,-0.03912353515625,0.0941162109375,-0.962646484375,100752.9375,25.245899200439453,73171.0
2.109999895095825,-1.1799999475479126,9.170000076293945,3.875,-9.6875,-51.6875,-7.4375,-8.9375,-8.5625,1.2300000190734863,-1.600000023841858,9.59000015258789,-0.25360107421875,-0.0416259765625,0.09735107421875,-0.96148681640625,100752.8359375,25.24506950378418,73211.0
2.609999895095825,-1.8899999856948853,9.890000343322754,3.5,-9.0,-52.5,-7.75,-6.4375,-10.0625,1.2899999618530273,-1.649999976158142,9.569999694824219,-0.2568359375,-0.043212890625,0.0997314453125,-0.9603271484375,100753.578125,25.246170043945312,73251.0
2.2200000286102295,-1.6299999952316284,10.619999885559082,3.5,-9.0,-52.5,-2.0625,-2.25,-11.375,1.3300000429153442,-1.659999966621399,9.569999694824219,-0.26055908203125,-0.044189453125,0.10052490234375,-0.95916748046875,100752.984375,25.246999740600586,73291.0
2.1600000858306885,-1.909999966621399,11.029999732971191,2.5,-8.5625,-53.1875,-4.8125,-2.1875,-12.8125,1.3600000143051147,-1.6699999570846558,9.5600004196167,-0.26458740234375,-0.044921875,0.101806640625,-0.9578857421875,100753.21875,25.247631072998047,73331.0
1.8799999952316284,-2.5199999809265137,11.079999923706055,2.75,-8.1875,-52.0625,-0.5625,-0.8125,-9.9375,1.3799999952316284,-1.6799999475479126,9.5600004196167,-0.2674560546875,-0.04559326171875,0.10107421875,-0.9571533203125,100753.0,25.248676300048828,73371.0
0.8299999833106995,-1.809999942779541,10.760000228881836,2.75,-8.1875,-51.25,-2.1875,-4.4375,-4.9375,1.3899999856948853,-1.649999976158142,9.5600004196167,-0.26885986328125,-0.04742431640625,0.10198974609375,-0.95660400390625,100753.203125,25.24772071838379,73411.0
1.0299999713897705,-1.9500000476837158,9.960000038146973,2.6875,-8.875,-52.75,1.3125,-13.6875,-6.4375,1.4700000286102295,-1.649999976158142,9.550000190734863,-0.27069091796875,-0.05242919921875,0.1024169921875,-0.95574951171875,100753.1015625,25.248170852661133,73451.0
2.009999990463257,-1.3200000524520874,9.680000305175781,2.6875,-8.875,-52.75,4.4375,-13.4375,-10.375,1.5700000524520874,-1.6200000047683716,9.539999961853027,-0.27362060546875,-0.05706787109375,0.10186767578125,-0.9547119140625,100752.7265625,25.249650955200195,73491.0
1.9299999475479126,-1.090000033378601,9.0600004196167,2.6875,-9.25,-53.0625,3.4375,-2.9375,-11.9375,1.6299999952316284,-1.5800000429153442,9.529999732971191,-0.2774658203125,-0.05841064453125,0.10089111328125,-0.95367431640625,100751.75,25.247882843017578,73531.0
1.7100000381469727,-1.8200000524520874,9.270000457763672,3.0,-9.25,-51.875,3.375,4.5625,-14.875,1.6299999952316284,-1.5499999523162842,9.539999961853027,-0.28240966796875,-0.05767822265625,0.0986328125,-0.95245361328125,100751.7578125,25.24712562561035,73571.0
1.3200000524520874,-1.6200000047683716,8.649999618530273,2.875,-10.0,-52.5,10.25,9.125,-16.25,1.600000023841858,-1.4800000190734863,9.5600004196167,-0.28765869140625,-0.0562744140625,0.0938720703125,-0.95147705078125,100752.046875,25.2482967376709,73611.0
1.0,-1.2999999523162842,8.569999694824219,2.75,-10.0,-52.25,14.5,9.4375,-14.4375,1.5499999523162842,-1.3700000047683716,9.579999923706055,-0.29217529296875,-0.05523681640625,0.0882568359375,-0.95068359375,100751.65625,25.24860382080078,73651.0
0.6499999761581421,-0.949999988079071,8.130000114440918,2.75,-10.0,-52.25,8.875,4.125,-12.0,1.5199999809265137,-1.2899999618530273,9.600000381469727,-0.2958984375,-0.05523681640625,0.0850830078125,-0.9498291015625,100751.4375,25.248821258544922,73691.0
0.699999988079071,-1.2200000286102295,8.289999961853027,3.75,-11.1875,-52.25,2.1875,-0.375,-9.75,1.5,-1.25,9.600000381469727,-0.29876708984375,-0.05389404296875,0.08380126953125,-0.9490966796875,100751.8828125,25.24955940246582,73731.0
0.6600000262260437,-1.2999999523162842,8.789999961853027,3.0,-12.6875,-51.0625,0.625,-1.25,-7.625,1.5,-1.2300000190734863,9.609999656677246,-0.30108642578125,-0.0546875,0.08355712890625,-0.9483642578125,100751.5625,25.249542236328125,73771.0
0.6200000047683716,-1.3799999952316284,9.329999923706055,3.1875,-12.0,-52.25,1.25,-3.5625,-5.1875,1.5199999809265137,-1.2200000286102295,9.600000381469727,-0.302490234375,-0.05615234375,0.0836181640625,-0.94781494140625,100751.6875,25.250696182250977,73811.0
0.8299999833106995,-1.7999999523162842,10.319999694824219,4.0,-12.0,-51.5,1.25,-4.5625,-2.375,1.5499999523162842,-1.2100000381469727,9.600000381469727,-0.302978515625,-0.05780029296875,0.08349609375,-0.94757080078125,100752.390625,25.250389099121094,73851.0
1.100000023841858,-1.8600000143051147,10.899999618530273,4.0,-12.0,-51.5,5.75,-2.375,0.5,1.5700000524520874,-1.190000057220459,9.600000381469727,-0.302490234375,-0.0589599609375,0.08160400390625,-0.94781494140625,100751.7734375,25.249595642089844,73891.0
1.3799999952316284,-0.8600000143051147,10.59000015258789,2.6875,-11.5625,-50.6875,6.1875,2.5625,4.375,1.5700000524520874,-1.1399999856948853,9.609999656677246,-0.30084228515625,-0.058349609375,0.07952880859375,-0.94854736328125,100751.515625,25.250137329101562,73931.0
1.4800000190734863,-1.25,11.859999656677246,2.6875,-13.375,-51.5,5.3125,8.3125,9.5625,1.5199999809265137,-1.1200000047683716,9.619999885559082,-0.29779052734375,-0.05615234375,0.07659912109375,-0.94989013671875,100751.796875,25.250551223754883,73971.0
1.350000023841858,0.10999999940395355,10.880000114440918,2.25,-13.75,-50.75,13.5,7.75,8.4375,1.4600000381469727,-1.0499999523162842,9.630000114440918,-0.29534912109375,-0.05474853515625,0.07257080078125,-0.9510498046875,100751.4375,25.2491455078125,74011.0
1.8899999856948853,-0.33000001311302185,10.329999923706055,2.25,-13.75,-50.75,4.875,7.25,3.0,1.409999966621399,-1.0199999809265137,9.640000343322754,-0.29449462890625,-0.05279541015625,0.0704345703125,-0.95159912109375,100750.3828125,25.24750328063965,74051.0
1.600000023841858,-0.9700000286102295,10.210000038146973,3.0,-14.875,-50.375,6.4375,5.8125,1.0625,1.3600000143051147,-0.9900000095367432,9.649999618530273,-0.29437255859375,-0.05194091796875,0.06781005859375,-0.95184326171875,100750.2578125,25.24972152709961,74091.0
1.840000033378601,-0.9599999785423279,9.819999694824219,2.375,-14.5,-50.5625,10.75,-0.9375,-3.0,1.3600000143051147,-0.9300000071525574,9.65999984741211,-0.29522705078125,-0.053466796875,0.064208984375,-0.9517822265625,100750.03125,25.24966812133789,74131.0
1.899999976158142,-0.5899999737739563,9.050000190734863,2.0,-15.5625,-50.375,18.25,-1.625,-5.4375,1.3700000047683716,-0.8199999928474426,9.670000076293945,-0.2967529296875,-0.05584716796875,0.05865478515625,-0.9515380859375,100749.9296875,25.25078582763672,74171.0
1.75,0.28999999165534973,7.699999809265137,2.375,-16.0,-51.5625,15.5625,-0.1875,-6.8125,1.3799999952316284,-0.7099999785423279,9.680000305175781,-0.298828125,-0.05670166015625,0.054443359375,-0.9510498046875,100749.390625,25.248153686523438,74211.0
1.4500000476837158,0.1899999976158142,7.539999961853027,2.375,-16.0,-51.5625,5.0625,4.5,-6.4375,1.3700000047683716,-0.6700000166893005,9.680000305175781,-0.30084228515625,-0.0550537109375,0.05340576171875,-0.9505615234375,100749.515625,25.248477935791016,74251.0
1.3700000047683716,-0.20999999344348907,7.679999828338623,3.1875,-17.375,-50.5,-7.3125,8.0625,-5.375,1.309999942779541,-0.6800000071525574,9.6899995803833,-0.30279541015625,-0.0517578125,0.05499267578125,-0.9500732421875,100749.359375,25.24930763244629,74291.0
1.2100000381469727,-0.8500000238418579,8.279999732971191,2.0625,-18.5625,-51.5,-9.125,8.375,-4.6875,1.2599999904632568,-0.7400000095367432,9.6899995803833,-0.3045654296875,-0.04840087890625,0.056884765625,-0.9495849609375,100749.5703125,25.2487850189209,74331.0
1.2899999618530273,-0.75,9.149999618530273,2.5625,-17.375,-51.0,-7.0,6.5625,-3.375,1.2100000381469727,-0.7900000214576721,9.6899995803833,-0.3057861328125,-0.04571533203125,0.05859375,-0.94921875,100748.78125,25.246078491210938,74371.0
1.1799999475479126,-0.3100000023841858,9.5600004196167,2.75,-18.1875,-50.5,-10.125,3.125,-1.6875,1.190000057220459,-0.8299999833106995,9.6899995803833,-0.30645751953125,-0.0440673828125,0.06292724609375,-0.94879150390625,100749.0234375,25.245773315429688,74411.0
1.4199999570846558,-0.8199999928474426,10.470000267028809,2.75,-18.1875,-50.5,-19.4375,-2.625,-1.0,1.2000000476837158,-0.9300000071525574,9.680000305175781,-0.30718994140625,-0.043701171875,0.070068359375,-0.94805908203125,100749.3984375,25.2467098236084,74451.0
1.809999942779541,-1.3700000047683716,11.109999656677246,3.1875,-17.0625,-50.0625,-19.9375,-9.5625,-3.9375,1.2599999904632568,-1.100000023841858,9.65999984741211,-0.30908203125,-0.04534912109375,0.07708740234375,-0.94683837890625,100749.4453125,25.248550415039062,74491.0
2.319999933242798,-1.9199999570846558,11.140000343322754,1.75,-16.375,-51.6875,-12.5,-11.6875,-9.5,1.350000023841858,-1.1799999475479126,9.640000343322754,-0.31256103515625,-0.04833984375,0.080322265625,-0.94525146484375,100749.390625,25.247053146362305,74531.0
2.069999933242798,-1.2799999713897705,11.899999618530273,2.375,-16.5625,-51.5,-0.0625,-9.8125,-14.4375,1.4199999570846558,-1.1799999475479126,9.619999885559082,-0.3175048828125,-0.052734375,0.07916259765625,-0.9434814453125,100749.1015625,25.245935440063477,74571.0
1.3600000143051147,0.9200000166893005,8.729999542236328,1.5625,-17.0,-51.25,31.0625,-9.875,-18.5625,1.4800000190734863,-1.0800000429153442,9.630000114440918,-0.32208251953125,-0.0576171875,0.07598876953125,-0.94189453125,100749.1640625,25.245681762695312,74611.0
1.590000033378601,-0.7900000214576721,9.8100004196167,1.5625,-17.0,-51.25,-25.1875,-20.375,-22.125,1.6100000143051147,-1.100000023841858,9.600000381469727,-0.32904052734375,-0.06207275390625,0.08465576171875,-0.9384765625,100748.8984375,25.24490737915039,74651.0
2.2899999618530273,-1.2899999618530273,9.760000228881836,1.0,-17.0,-49.875,-15.6875,-13.0,-21.6875,1.7599999904632568,-1.2100000381469727,9.5600004196167,-0.337158203125,-0.06451416015625,0.0908203125,-0.934814453125,100748.640625,25.246042251586914,74691.0
2.2300000190734863,-1.6299999952316284,9.289999961853027,0.875,-17.1875,-52.0625,-4.3125,3.3125,-17.0,1.7699999809265137,-1.2300000190734863,9.5600004196167,-0.3424072265625,-0.0628662109375,0.090087890625,-0.93310546875,100748.5859375,25.243446350097656,74731.0
1.600000023841858,-1.1399999856948853,8.65999984741211,0.25,-16.5,-50.0,3.6875,10.25,-14.75,1.7200000286102295,-1.2000000476837158,9.569999694824219,-0.34716796875,-0.05999755859375,0.08697509765625,-0.93182373046875,100748.6796875,25.241498947143555,74771.0
0.9599999785423279,-1.25,8.010000228881836,0.0625,-16.375,-50.0,4.875,13.8125,-13.5,1.659999966621399,-1.159999966621399,9.59000015258789,-0.35052490234375,-0.0576171875,0.08404541015625,-0.93096923828125,100748.359375,25.239459991455078,74811.0
0.5,-1.0,7.369999885559082,0.0625,-16.375,-50.0,10.375,12.9375,-12.0625,1.590000033378601,-1.100000023841858,9.609999656677246,-0.3543701171875,-0.05523681640625,0.0792236328125,-0.93011474609375,100748.359375,25.23792839050293,74851.0
0.23000000417232513,-0.8999999761581421,7.300000190734863,-0.0625,-16.0625,-50.5625,8.9375,7.3125,-9.6875,1.5299999713897705,-1.0199999809265137,9.630000114440918,-0.35791015625,-0.05450439453125,0.07501220703125,-0.92913818359375,100747.796875,25.234464645385742,74891.0
0.5099999904632568,-0.9800000190734863,7.909999847412109,0.5625,-17.0,-48.875,5.0625,2.5625,-7.3125,1.5099999904632568,-0.9700000286102295,9.630000114440918,-0.3594970703125,-0.05450439453125,0.07373046875,-0.92864990234375,100747.90625,25.234193801879883,74931.0
0.4699999988079071,-1.4299999475479126,8.739999771118164,0.75,-16.875,-48.75,4.0,1.3125,-5.6875,1.5,-0.9399999976158142,9.640000343322754,-0.361572265625,-0.054931640625,0.07177734375,-0.927978515625,100748.140625,25.233978271484375,74971.0
0.5600000023841858,-1.350000023841858,9.520000457763672,1.5,-18.0,-48.375,3.6875,-0.0625,-4.3125,1.5,-0.9100000262260437,9.640000343322754,-0.36236572265625,-0.05548095703125,0.07073974609375,-0.92767333984375,100748.1015625,25.233816146850586,75011.0
0.8899999856948853,-1.2899999618530273,10.670000076293945,1.5,-18.0,-48.375,4.8125,-1.75,-1.4375,1.5099999904632568,-0.8700000047683716,9.640000343322754,-0.362548828125,-0.0565185546875,0.0692138671875,-0.92767333984375,100747.5546875,25.23426628112793,75051.0
1.1699999570846558,-1.7300000190734863,11.890000343322754,0.6875,-17.1875,-48.0,8.0625,1.625,2.75,1.5099999904632568,-0.8299999833106995,9.649999618530273,-0.3614501953125,-0.05706787109375,0.06610107421875,-0.92828369140625,100747.7265625,25.235763549804688,75091.0
1.2999999523162842,-0.7900000214576721,12.3100004196167,0.0,-18.875,-48.25,16.5,2.5625,4.875,1.4900000095367432,-0.75,9.65999984741211,-0.359619140625,-0.05810546875,0.06097412109375,-0.92926025390625,100747.828125,25.2340145111084,75131.0
1.7000000476837158,-0.03999999910593033,12.380000114440918,1.0,-19.25,-47.0625,10.875,1.0625,4.8125,1.4800000190734863,-0.6600000262260437,9.670000076293945,-0.3580322265625,-0.05877685546875,0.0579833984375,-0.9300537109375,100747.9765625,25.233257293701172,75171.0
2.25,0.44999998807907104,10.319999694824219,-0.5625,-20.0,-45.1875,-13.3125,2.125,0.9375,1.4700000286102295,-0.6700000166893005,9.670000076293945,-0.35797119140625,-0.05633544921875,0.0614013671875,-0.92999267578125,100746.796875,25.230388641357422,75211.0
1.600000023841858,-0.2199999988079071,10.350000381469727,-0.5625,-20.0,-45.1875,-0.9375,4.8125,3.125,1.440000057220459,-0.7300000190734863,9.670000076293945,-0.35699462890625,-0.0546875,0.0623779296875,-0.930419921875,100746.484375,25.231128692626953,75251.0
1.8700000047683716,-0.9900000095367432,9.630000114440918,-0.5,-20.0625,-46.5,-9.3125,-1.8125,6.75,1.4299999475479126,-0.7900000214576721,9.65999984741211,-0.35479736328125,-0.05419921875,0.0653076171875,-0.93109130859375,100747.0703125,25.23226547241211,75291.0
1.9900000095367432,-1.899999976158142,9.699999809265137,-0.75,-20.5,-46.5,-2.4375,-1.6875,8.6875,1.440000057220459,-0.8299999833106995,9.65999984741211,-0.35205078125,-0.0545654296875,0.0653076171875,-0.93206787109375,100747.015625,25.231380462646484,75331.0
2.200000047683716,-0.07999999821186066,8.260000228881836,-1.875,-20.5,-46.5,14.6875,2.5625,7.125,1.440000057220459,-0.7699999809265137,9.65999984741211,-0.34967041015625,-0.0548095703125,0.06072998046875,-0.93328857421875,100746.8203125,25.230714797973633,75371.0
1.4600000381469727,0.6700000166893005,7.389999866485596,-1.1875,-20.5,-44.875,4.6875,10.8125,5.75,1.3799999952316284,-0.7099999785423279,9.680000305175781,-0.3482666015625,-0.051513671875,0.05889892578125,-0.93414306640625,100746.828125,25.230209350585938,75411.0
1.2699999809265137,0.10999999940395355,6.849999904632568,-1.1875,-20.5,-44.875,-15.6875,13.1875,0.375,1.2999999523162842,-0.7699999809265137,9.680000305175781,-0.348876953125,-0.04541015625,0.06268310546875,-0.9339599609375,100747.1875,25.230424880981445,75451.0
1.3700000047683716,-0.5299999713897705,7.090000152587891,-2.25,-21.5625,-45.375,-26.5,13.5625,-5.25,1.2100000381469727,-0.9100000262260437,9.680000305175781,-0.3514404296875,-0.0380859375,0.06939697265625,-0.932861328125,100746.859375,25.228837966918945,75491.0
1.3700000047683716,-1.1299999952316284,7.769999980926514,-1.0625,-21.1875,-45.0,-28.5625,13.1875,-9.8125,1.1299999952316284,-1.090000033378601,9.670000076293945,-0.355224609375,-0.03082275390625,0.07666015625,-0.93109130859375,100747.5234375,25.230533599853516,75531.0
1.440000057220459,-1.909999966621399,9.100000381469727,-1.5,-20.0625,-45.0,-25.75,11.5625,-11.875,1.059999942779541,-1.2599999904632568,9.65999984741211,-0.359619140625,-0.02471923828125,0.08282470703125,-0.9290771484375,100747.5,25.23065948486328,75571.0
1.5,-1.5499999523162842,10.119999885559082,1.0625,-19.75,-45.5625,-21.75,7.1875,-14.5625,1.0099999904632568,-1.3899999856948853,9.649999618530273,-0.36474609375,-0.02044677734375,0.0889892578125,-0.9266357421875,100747.90625,25.231327056884766,75611.0
1.3799999952316284,-2.2699999809265137,12.050000190734863,1.0625,-19.75,-45.5625,-23.9375,-0.4375,-20.875,1.0099999904632568,-1.5399999618530273,9.630000114440918,-0.37158203125,-0.0186767578125,0.0960693359375,-0.9232177734375,100747.6015625,25.230100631713867,75651.0
1.5299999713897705,-2.450000047683716,12.279999732971191,0.6875,-18.1875,-46.0625,-15.6875,-6.5625,-24.3125,1.0700000524520874,-1.6399999856948853,9.600000381469727,-0.37896728515625,-0.01971435546875,0.10107421875,-0.919677734375,100747.703125,25.22918128967285,75691.0
1.7999999523162842,-3.1700000762939453,14.34000015258789,0.25,-17.6875,-45.5,2.3125,-4.3125,-21.6875,1.1299999952316284,-1.6699999570846558,9.59000015258789,-0.38525390625,-0.02227783203125,0.099365234375,-0.91717529296875,100747.4921875,25.228496551513672,75731.0
0.3799999952316284,1.940000057220459,9.65999984741211,-0.5625,-17.25,-43.875,2.0,-3.375,-17.625,1.159999966621399,-1.5800000429153442,9.600000381469727,-0.39044189453125,-0.02349853515625,0.10125732421875,-0.91473388671875,100747.2578125,25.22739601135254,75771.0
1.3200000524520874,-1.9199999570846558,10.479999542236328,-0.5625,-17.25,-43.875,-26.1875,1.0625,-11.8125,1.2000000476837158,-1.7100000381469727,9.569999694824219,-0.39410400390625,-0.0201416015625,0.10791015625,-0.9124755859375,100747.5546875,25.227142333984375,75811.0
0.3400000035762787,-2.1600000858306885,9.760000228881836,-0.6875,-17.0,-44.0,-10.5625,6.6875,-10.6875,1.1699999570846558,-1.809999942779541,9.5600004196167,-0.39788818359375,-0.01763916015625,0.10919189453125,-0.9107666015625,100747.3046875,25.22638511657715,75851.0
0.6600000262260437,-2.259999990463257,9.479999542236328,-0.375,-16.75,-44.1875,12.1875,6.0,-13.5625,1.149999976158142,-1.7699999809265137,9.569999694824219,-0.402099609375,-0.01788330078125,0.10430908203125,-0.909423828125,100747.328125,25.22696304321289,75891.0
0.6100000143051147,-1.159999966621399,8.449999809265137,0.0625,-15.5625,-43.5,17.1875,6.8125,-11.25,1.1200000047683716,-1.659999966621399,9.59000015258789,-0.40557861328125,-0.0185546875,0.09820556640625,-0.9085693359375,100747.5,25.226837158203125,75931.0
0.5600000023841858,-0.8799999952316284,7.769999980926514,-0.1875,-16.875,-42.1875,14.3125,4.625,-9.1875,1.100000023841858,-1.5499999523162842,9.609999656677246,-0.408203125,-0.0196533203125,0.0938720703125,-0.9078369140625,100746.5234375,25.22442054748535,75971.0
0.5600000023841858,-0.550000011920929,7.409999847412109,-0.1875,-16.875,-42.1875,10.3125,-0.6875,-7.8125,1.100000023841858,-1.4900000095367432,9.619999885559082,-0.410400390625,-0.02178955078125,0.0921630859375,-0.906982421875,100746.4609375,25.22490692138672,76011.0
0.800000011920929,-0.7900000214576721,7.579999923706055,0.375,-17.0625,-42.375,-1.75,-7.4375,-6.3125,1.149999976158142,-1.4500000476837158,9.619999885559082,-0.412109375,-0.02398681640625,0.09326171875,-0.906005859375,100746.484375,25.224130630493164,76051.0
1.0299999713897705,-1.3799999952316284,8.460000038146973,-0.0625,-16.6875,-41.1875,-8.3125,-8.5,-3.75,1.2100000381469727,-1.4800000190734863,9.609999656677246,-0.412841796875,-0.0255126953125,0.0966796875,-0.9052734375,100747.0078125,25.225284576416016,76091.0
0.7200000286102295,-1.7200000286102295,9.119999885559082,0.375,-16.5625,-41.875,-2.875,-5.875,-0.5625,1.25,-1.5199999809265137,9.600000381469727,-0.41278076171875,-0.027099609375,0.09820556640625,-0.9051513671875,100746.6875,25.223247528076172,76131.0
0.4699999988079071,-1.4500000476837158,10.609999656677246,-1.0625,-16.25,-41.1875,0.0,-7.625,-0.5,1.2799999713897705,-1.5199999809265137,9.600000381469727,-0.41302490234375,-0.02984619140625,0.1004638671875,-0.9046630859375,100746.921875,25.222309112548828,76171.0
1.2400000095367432,-1.4199999570846558,11.1899995803833,-1.0625,-16.25,-41.1875,-9.4375,-14.125,-5.9375,1.3600000143051147,-1.5499999523162842,9.579999923706055,-0.4150390625,-0.032470703125,0.10552978515625,-0.903076171875,100747.1875,25.222761154174805,76211.0
1.9299999475479126,-2.619999885559082,11.289999961853027,-1.375,-15.75,-41.25,-1.8125,-5.3125,-6.625,1.4600000381469727,-1.6100000143051147,9.5600004196167,-0.41656494140625,-0.0340576171875,0.10528564453125,-0.90234375,100747.2890625,25.22368049621582,76251.0
1.9299999475479126,-2.1700000762939453,12.369999885559082,-1.0625,-15.75,-42.375,27.5625,5.8125,1.875,1.440000057220459,-1.5,9.579999923706055,-0.41552734375,-0.03607177734375,0.09576416015625,-0.90380859375,100747.21875,25.22321128845215,76291.0
1.690000057220459,1.0199999809265137,10.260000228881836,-2.5,-15.375,-41.25,23.25,8.0625,5.6875,1.3899999856948853,-1.340000033378601,9.609999656677246,-0.41400146484375,-0.0345458984375,0.0916748046875,-0.90496826171875,100746.9921875,25.221696853637695,76331.0
1.0700000524520874,-1.2799999713897705,10.899999618530273,-1.25,-16.0625,-40.6875,-4.25,7.375,5.0625,1.340000033378601,-1.350000023841858,9.609999656677246,-0.41302490234375,-0.0328369140625,0.09222412109375,-0.90545654296875,100746.78125,25.22113800048828,76371.0
1.2200000286102295,-1.7100000381469727,9.869999885559082,-1.25,-16.0625,-40.6875,0.5,0.1875,3.5625,1.3200000524520874,-1.3700000047683716,9.609999656677246,-0.41204833984375,-0.03314208984375,0.09173583984375,-0.90594482421875,100746.84375,25.22187614440918,76411.0
1.590000033378601,-1.7100000381469727,9.430000305175781,-1.6875,-16.0625,-40.5625,10.8125,-3.9375,0.3125,1.340000033378601,-1.2999999523162842,9.619999885559082,-0.41204833984375,-0.03704833984375,0.08740234375,-0.90618896484375,100747.265625,25.224166870117188,76451.0
1.840000033378601,-0.2199999988079071,7.480000019073486,-2.375,-16.0625,-41.0,14.6875,-3.5625,-5.375,1.3700000047683716,-1.2000000476837158,9.630000114440918,-0.4144287109375,-0.03875732421875,0.0843505859375,-0.90533447265625,100746.953125,25.22184181213379,76491.0
1.5,-0.23000000417232513,7.03000020980835,-3.1875,-16.75,-40.1875,2.4375,3.5,-10.9375,1.3600000143051147,-1.1699999570846558,9.630000114440918,-0.41839599609375,-0.03704833984375,0.0841064453125,-0.903564453125,100747.15625,25.221263885498047,76531.0
1.2799999713897705,-0.5199999809265137,6.989999771118164,-3.1875,-16.375,-39.875,-7.9375,8.625,-15.0625,1.3300000429153442,-1.190000057220459,9.640000343322754,-0.4222412109375,-0.0343017578125,0.085205078125,-0.90179443359375,100747.2265625,25.220813751220703,76571.0
1.1799999475479126,-1.1299999952316284,7.929999828338623,-3.1875,-16.375,-39.875,-12.9375,9.75,-14.6875,1.2799999713897705,-1.25,9.640000343322754,-0.42694091796875,-0.030029296875,0.08740234375,-0.8995361328125,100747.171875,25.222219467163086,76611.0
1.2000000476837158,-1.600000023841858,8.779999732971191,-2.0625,-16.75,-39.75,-6.75,8.0,-10.0625,1.2300000190734863,-1.309999942779541,9.630000114440918,-0.4310302734375,-0.02679443359375,0.08819580078125,-0.89764404296875,100748.0546875,25.22384262084961,76651.0
1.0800000429153442,-1.5499999523162842,9.859999656677246,-1.6875,-15.6875,-39.75,-2.0625,2.0,-9.9375,1.2100000381469727,-1.3200000524520874,9.630000114440918,-0.43426513671875,-0.02728271484375,0.0888671875,-0.89599609375,100747.9765625,25.221588134765625,76691.0
1.5099999904632568,-1.2000000476837158,10.329999923706055,-1.6875,-15.25,-39.375,-4.0,-5.4375,-12.0625,1.2400000095367432,-1.3300000429153442,9.630000114440918,-0.43768310546875,-0.02874755859375,0.0914306640625,-0.89404296875,100748.25,25.219911575317383,76731.0
2.059999942779541,-1.75,11.739999771118164,-0.875,-15.0,-37.75,-6.25,-6.375,-10.8125,1.2999999523162842,-1.3600000143051147,9.619999885559082,-0.43994140625,-0.02978515625,0.09295654296875,-0.8927001953125,100748.375,25.21864891052246,76771.0
1.7000000476837158,-1.5700000524520874,11.899999618530273,-0.875,-15.0,-37.75,0.4375,-4.9375,-10.5625,1.340000033378601,-1.3600000143051147,9.609999656677246,-0.4429931640625,-0.03179931640625,0.09344482421875,-0.89105224609375,100748.375,25.215980529785156,76811.0
1.2699999809265137,-2.640000104904175,13.569999694824219,-3.25,-15.0,-39.875,4.625,-7.5,-10.3125,1.3899999856948853,-1.340000033378601,9.609999656677246,-0.44573974609375,-0.0360107421875,0.09185791015625,-0.88970947265625,100748.03125,25.212228775024414,76851.0
1.0199999809265137,-0.4300000071525574,10.649999618530273,-2.875,-14.75,-39.0625,19.25,-14.4375,-11.0,1.4700000286102295,-1.2100000381469727,9.609999656677246,-0.4482421875,-0.04339599609375,0.0882568359375,-0.88848876953125,100748.078125,25.2128963470459,76891.0
1.190000057220459,-0.05999999865889549,9.34000015258789,-2.5,-14.375,-39.1875,20.25,-11.8125,-10.6875,1.5700000524520874,-1.0800000429153442,9.609999656677246,-0.45111083984375,-0.04962158203125,0.084716796875,-0.8870849609375,100747.8203125,25.211650848388672,76931.0
1.5399999618530273,-0.4099999964237213,9.270000457763672,-2.75,-15.0,-38.0,5.3125,-1.0625,-15.625,1.6200000047683716,-1.0,9.609999656677246,-0.45587158203125,-0.050537109375,0.083251953125,-0.88470458984375,100747.8515625,25.211885452270508,76971.0
0.9200000166893005,-0.9900000095367432,9.3100004196167,-2.75,-15.0,-38.0,-2.5625,8.9375,-20.875,1.600000023841858,-0.9900000095367432,9.619999885559082,-0.462646484375,-0.0482177734375,0.0819091796875,-0.88140869140625,100748.03125,25.214933395385742,77011.0
0.5199999809265137,-0.9100000262260437,8.970000267028809,-3.0625,-14.6875,-37.25,5.9375,8.875,-26.5625,1.5499999523162842,-0.9399999976158142,9.630000114440918,-0.4708251953125,-0.04736328125,0.0782470703125,-0.87750244140625,100748.0,25.214916229248047,77051.0
0.6499999761581421,-0.25999999046325684,8.170000076293945,-2.375,-14.6875,-38.0,6.75,7.1875,-29.0625,1.5199999809265137,-0.8700000047683716,9.640000343322754,-0.47943115234375,-0.04693603515625,0.074951171875,-0.87310791015625,100748.015625,25.21260643005371,77091.0
0.47999998927116394,-0.23000000417232513,7.909999847412109,-2.6875,-14.6875,-37.5625,0.75,5.25,-28.0625,1.4900000095367432,-0.8199999928474426,9.649999618530273,-0.48779296875,-0.04620361328125,0.0738525390625,-0.86859130859375,100748.171875,25.213167190551758,77131.0
0.5299999713897705,-0.14000000059604645,7.769999980926514,-1.5,-14.5625,-37.5625,-10.0,-0.1875,-26.0,1.4900000095367432,-0.8299999833106995,9.649999618530273,-0.49542236328125,-0.0445556640625,0.0760498046875,-0.8641357421875,100747.828125,25.21129035949707,77171.0
0.6700000166893005,-0.9900000095367432,8.119999885559082,-1.5,-14.5625,-37.5625,-20.5,-3.9375,-20.75,1.5099999904632568,-0.9100000262260437,9.640000343322754,-0.50152587890625,-0.04290771484375,0.0823974609375,-0.86016845703125,100747.9453125,25.211597442626953,77211.0
0.9599999785423279,-1.7400000095367432,9.09000015258789,-1.6875,-14.1875,-37.5625,-17.3125,-6.0625,-16.4375,1.559999942779541,-1.0099999904632568,9.619999885559082,-0.5062255859375,-0.0423583984375,0.08782958984375,-0.85687255859375,100747.953125,25.211273193359375,77251.0
0.8600000143051147,-1.5,9.579999923706055,-1.875,-13.375,-38.5,-7.9375,-5.3125,-14.375,1.600000023841858,-1.0700000524520874,9.609999656677246,-0.51043701171875,-0.0428466796875,0.0909423828125,-0.85400390625,100748.40625,25.21101951599121,77291.0
0.6600000262260437,-0.8399999737739563,10.739999771118164,-1.75,-11.6875,-39.6875,-14.75,-3.5625,-17.125,1.6399999856948853,-1.1200000047683716,9.600000381469727,-0.51556396484375,-0.04156494140625,0.09625244140625,-0.85040283203125,100748.140625,25.209667205810547,77331.0
0.6000000238418579,-1.4500000476837158,11.0600004196167,-2.1875,-11.6875,-38.375,-26.625,-5.3125,-17.6875,1.690000057220459,-1.2599999904632568,9.569999694824219,-0.52081298828125,-0.039306640625,0.10443115234375,-0.84637451171875,100748.4453125,25.20865821838379,77371.0
1.440000057220459,-2.390000104904175,11.579999923706055,-2.1875,-11.6875,-38.375,-15.5,-5.8125,-17.1875,1.7400000095367432,-1.3700000047683716,9.550000190734863,-0.5255126953125,-0.03900146484375,0.10821533203125,-0.84295654296875,100748.078125,25.206745147705078,77411.0
1.7300000190734863,-1.840000033378601,11.050000190734863,-0.875,-10.375,-39.75,13.75,8.8125,-9.125,1.7400000095367432,-1.340000033378601,9.550000190734863,-0.528076171875,-0.0389404296875,0.10345458984375,-0.84197998046875,100748.7578125,25.20647621154785,77451.0
0.8399999737739563,0.2800000011920929,10.649999618530273,-1.5,-11.1875,-39.5625,-9.0625,3.6875,-6.8125,1.7000000476837158,-1.309999942779541,9.5600004196167,-0.5303955078125,-0.03662109375,0.10626220703125,-0.84027099609375,100749.1015625,25.204526901245117,77491.0
1.4500000476837158,-1.659999966621399,10.930000305175781,-0.5,-10.0,-39.1875,-20.0,-9.3125,-10.0,1.7300000190734863,-1.4299999475479126,9.539999961853027,-0.533203125,-0.0362548828125,0.11285400390625,-0.837646484375,100749.171875,25.204238891601562,77531.0
2.0299999713897705,-2.2200000286102295,10.239999771118164,-1.0,-9.5625,-40.5625,-5.3125,-7.4375,-11.4375,1.7999999523162842,-1.4900000095367432,9.520000457763672,-0.5362548828125,-0.03814697265625,0.114990234375,-0.8353271484375,100748.3671875,25.201696395874023,77571.0
1.9600000381469727,-2.059999942779541,9.630000114440918,-1.0,-9.5625,-40.5625,9.3125,-5.0,-14.375,1.850000023841858,-1.440000057220459,9.510000228881836,-0.54010009765625,-0.04180908203125,0.1126708984375,-0.83294677734375,100748.203125,25.19980239868164,77611.0
1.8600000143051147,-0.9800000190734863,7.71999979019165,-0.5,-9.5625,-41.0625,12.75,0.5,-17.5,1.8799999952316284,-1.340000033378601,9.520000457763672,-0.544921875,-0.04425048828125,0.10894775390625,-0.8302001953125,100747.7578125,25.19780158996582,77651.0
1.4700000286102295,-0.5899999737739563,7.130000114440918,-2.0,-10.0,-40.75,3.8125,5.9375,-16.875,1.8700000047683716,-1.2699999809265137,9.539999961853027,-0.54974365234375,-0.04364013671875,0.10675048828125,-0.82733154296875,100747.03125,25.195709228515625,77691.0
1.4600000381469727,-0.9399999976158142,7.230000019073486,-1.1875,-9.5,-40.875,-2.6875,9.4375,-14.0,1.8300000429153442,-1.25,9.550000190734863,-0.55389404296875,-0.040771484375,0.10552978515625,-0.82489013671875,100746.7265625,25.194734573364258,77731.0
1.1799999475479126,-0.9200000166893005,7.630000114440918,-1.1875,-9.5,-40.875,-5.75,10.8125,-9.5625,1.7699999809265137,-1.2699999809265137,9.5600004196167,-0.5570068359375,-0.03717041015625,0.10516357421875,-0.822998046875,100746.9375,25.19515037536621,77771.0
1.2899999618530273,-0.9100000262260437,8.369999885559082,0.75,-10.5625,-41.0,-8.6875,3.875,-10.5,1.7300000190734863,-1.309999942779541,9.5600004196167,-0.5601806640625,-0.03472900390625,0.10693359375,-0.82073974609375,100746.828125,25.196611404418945,77811.0
1.899999976158142,-1.4500000476837158,9.140000343322754,0.6875,-9.875,-40.5,-10.9375,3.0,-11.0625,1.7300000190734863,-1.3700000047683716,9.550000190734863,-0.56353759765625,-0.03240966796875,0.1090087890625,-0.8182373046875,100746.6484375,25.196556091308594,77851.0
2.009999990463257,-1.7000000476837158,10.220000267028809,0.0,-9.5,-40.5,-4.625,3.375,-12.0,1.7200000286102295,-1.399999976158142,9.550000190734863,-0.5670166015625,-0.03118896484375,0.10943603515625,-0.81585693359375,100747.078125,25.198251724243164,77891.0
2.1600000858306885,-1.600000023841858,11.149999618530273,0.75,-9.0625,-41.25,-1.75,3.4375,-11.75,1.7100000381469727,-1.399999976158142,9.550000190734863,-0.57025146484375,-0.0302734375,0.10931396484375,-0.8135986328125,100746.8046875,25.197782516479492,77931.0
1.8600000143051147,-1.600000023841858,11.8100004196167,0.75,-9.0625,-41.25,-4.3125,1.75,-10.875,1.7000000476837158,-1.409999966621399,9.550000190734863,-0.57330322265625,-0.02972412109375,0.11090087890625,-0.811279296875,100747.546875,25.200902938842773,77971.0
1.8799999952316284,-2.1600000858306885,13.529999732971191,1.0625,-9.0625,-41.375,-6.5,-7.875,-13.1875,1.7400000095367432,-1.440000057220459,9.539999961853027,-0.576904296875,-0.0316162109375,0.11346435546875,-0.80828857421875,100747.0390625,25.20209312438965,78011.0
1.7899999618530273,0.0,9.119999885559082,1.5,-8.75,-42.5,9.625,-5.25,-17.125,1.809999942779541,-1.3899999856948853,9.529999732971191,-0.581298828125,-0.0341796875,0.11383056640625,-0.804931640625,100746.9140625,25.200668334960938,78051.0
1.8799999952316284,-2.4100000858306885,10.460000038146973,1.0625,-8.5,-41.375,-10.5625,-0.1875,-18.4375,1.850000023841858,-1.4299999475479126,9.520000457763672,-0.58673095703125,-0.03302001953125,0.11578369140625,-0.80078125,100746.2734375,25.20075798034668,78091.0
1.3600000143051147,-1.4700000286102295,9.5600004196167,1.1875,-7.75,-41.375,-1.4375,6.375,-23.375,1.840000033378601,-1.4299999475479126,9.520000457763672,-0.59393310546875,-0.031494140625,0.1138916015625,-0.79583740234375,100746.0859375,25.199657440185547,78131.0
1.1799999475479126,-1.3899999856948853,9.180000305175781,1.1875,-7.75,-41.375,1.3125,12.6875,-27.3125,1.7999999523162842,-1.399999976158142,9.529999732971191,-0.5999755859375,-0.02996826171875,0.11102294921875,-0.791748046875,100745.8046875,25.199424743652344,78171.0
1.100000023841858,-1.1200000047683716,8.779999732971191,1.5625,-7.0,-42.1875,9.125,14.75,-32.3125,1.7100000381469727,-1.2999999523162842,9.5600004196167,-0.61163330078125,-0.02838134765625,0.10345458984375,-0.78387451171875,100745.625,25.19982147216797,78211.0
0.8199999928474426,-0.25,7.460000038146973,3.1875,-7.375,-42.5,7.625,16.0625,-34.5625,1.6299999952316284,-1.2000000476837158,9.59000015258789,-0.6209716796875,-0.02642822265625,0.0987548828125,-0.777099609375,100745.328125,25.196664810180664,78251.0
0.4399999976158142,-0.8299999833106995,7.559999942779541,3.0,-8.1875,-43.25,-0.8125,12.9375,-32.75,1.5700000524520874,-1.1699999570846558,9.600000381469727,-0.6300048828125,-0.0245361328125,0.09698486328125,-0.7701416015625,100745.6328125,25.196014404296875,78291.0
0.6800000071525574,-0.8700000047683716,7.650000095367432,5.0625,-7.0625,-43.1875,-3.0625,4.6875,-33.5625,1.559999942779541,-1.149999976158142,9.609999656677246,-0.63653564453125,-0.02392578125,0.09698486328125,-0.76470947265625,100745.46875,25.194393157958984,78331.0
0.8399999737739563,-1.1699999570846558,8.130000114440918,5.0625,-7.0625,-43.1875,-6.25,1.8125,-31.0,1.5700000524520874,-1.149999976158142,9.600000381469727,-0.64459228515625,-0.023193359375,0.09808349609375,-0.75787353515625,100745.875,25.1960506439209,78371.0
0.7699999809265137,-1.6299999952316284,8.819999694824219,5.25,-6.875,-44.1875,-8.375,-0.25,-29.8125,1.600000023841858,-1.1799999475479126,9.600000381469727,-0.65411376953125,-0.0225830078125,0.100341796875,-0.7493896484375,100745.828125,25.196718215942383,78411.0
1.2300000190734863,-1.8799999952316284,9.390000343322754,5.375,-5.75,-43.5,-5.25,-0.625,-28.9375,1.6299999952316284,-1.1799999475479126,9.59000015258789,-0.6610107421875,-0.02252197265625,0.10052490234375,-0.74322509765625,100745.7890625,25.194896697998047,78451.0
0.9399999976158142,-2.2200000286102295,11.119999885559082,4.875,-5.5,-44.0,1.5625,5.3125,-24.0625,1.6200000047683716,-1.159999966621399,9.600000381469727,-0.66668701171875,-0.02264404296875,0.09832763671875,-0.73846435546875,100745.953125,25.194122314453125,78491.0
0.9599999785423279,-1.4299999475479126,11.680000305175781,7.5,-5.375,-44.0625,2.8125,4.8125,-18.5625,1.600000023841858,-1.1100000143051147,9.600000381469727,-0.6700439453125,-0.0224609375,0.09716796875,-0.735595703125,100745.71875,25.19239044189453,78531.0
1.3300000429153442,-1.9700000286102295,13.489999771118164,7.5,-5.375,-44.0625,-6.5,4.875,-12.125,1.590000033378601,-1.1100000143051147,9.609999656677246,-0.6727294921875,-0.01983642578125,0.0972900390625,-0.73321533203125,100745.71875,25.19049644470215,78571.0
1.0399999618530273,-0.9900000095367432,11.069999694824219,6.5,-6.0,-44.25,5.9375,9.6875,-0.625,1.5399999618530273,-1.1299999952316284,9.609999656677246,-0.67303466796875,-0.0185546875,0.09368896484375,-0.7333984375,100746.15625,25.190820693969727,78611.0
1.3700000047683716,-1.7599999904632568,9.949999809265137,8.0625,-4.1875,-44.6875,8.25,7.5625,0.8125,1.4900000095367432,-1.0800000429153442,9.630000114440918,-0.67303466796875,-0.020751953125,0.08837890625,-0.7340087890625,100746.5078125,25.192209243774414,78651.0
1.2300000190734863,-1.4700000286102295,10.260000228881836,7.1875,-3.875,-44.875,29.375,1.0,-1.5625,1.4600000381469727,-0.949999988079071,9.649999618530273,-0.67340087890625,-0.02642822265625,0.0823974609375,-0.73419189453125,100746.1953125,25.191524505615234,78691.0
1.5499999523162842,-0.10999999940395355,9.010000228881836,6.5,-5.0,-44.5625,35.5,-3.375,-5.0625,1.4800000190734863,-0.7099999785423279,9.65999984741211,-0.6741943359375,-0.03515625,0.0743408203125,-0.73394775390625,100746.8515625,25.193904876708984,78731.0
1.9700000286102295,-0.15000000596046448,8.869999885559082,6.5,-5.0,-44.5625,33.5625,3.9375,-3.625,1.4800000190734863,-0.49000000953674316,9.680000305175781,-0.67462158203125,-0.04156494140625,0.06475830078125,-0.734130859375,100746.703125,25.195114135742188,78771.0
0.8899999856948853,0.6499999761581421,7.480000019073486,8.0625,-5.6875,-44.0625,28.75,11.3125,1.125,1.409999966621399,-0.2800000011920929,9.6899995803833,-0.67413330078125,-0.0450439453125,0.05548095703125,-0.73516845703125,100746.4765625,25.195438385009766,78811.0
0.6600000262260437,0.20999999344348907,7.400000095367432,8.5625,-6.75,-43.5625,19.625,9.1875,2.5625,1.350000023841858,-0.12999999523162842,9.710000038146973,-0.67327880859375,-0.0472412109375,0.04852294921875,-0.736328125,100746.421875,25.19451904296875,78851.0
0.7900000214576721,0.10000000149011612,7.710000038146973,6.6875,-7.1875,-43.0,18.375,9.3125,4.1875,1.2899999618530273,-0.009999999776482582,9.720000267028809,-0.6719970703125,-0.04888916015625,0.0418701171875,-0.73773193359375,100746.2890625,25.192678451538086,78891.0
0.6299999952316284,0.6800000071525574,8.319999694824219,7.5,-7.875,-41.375,12.625,10.5625,5.375,1.2200000286102295,0.07999999821186066,9.720000267028809,-0.6705322265625,-0.0487060546875,0.0367431640625,-0.7393798828125,100745.9609375,25.191308975219727,78931.0
0.7799999713897705,0.33000001311302185,9.130000114440918,7.5,-7.875,-41.375,3.4375,11.5,8.25,1.149999976158142,0.10999999940395355,9.729999542236328,-0.6683349609375,-0.04656982421875,0.03363037109375,-0.74163818359375,100745.7578125,25.190261840820312,78971.0
0.7900000214576721,0.12999999523162842,9.640000343322754,8.6875,-8.6875,-42.0,-5.1875,6.0,13.3125,1.090000033378601,0.10000000149011612,9.739999771118164,-0.66497802734375,-0.0440673828125,0.03326416015625,-0.74481201171875,100746.140625,25.190641403198242,79011.0
1.1100000143051147,0.5,10.359999656677246,8.875,-7.5625,-43.0,-3.5,2.375,15.25,1.059999942779541,0.07000000029802322,9.739999771118164,-0.66131591796875,-0.04241943359375,0.0338134765625,-0.7481689453125,100746.5,25.190353393554688,79051.0
1.2999999523162842,0.8899999856948853,10.829999923706055,9.5625,-7.875,-42.1875,-6.8125,4.125,14.5625,1.0399999618530273,0.019999999552965164,9.75,-0.65777587890625,-0.03924560546875,0.0355224609375,-0.7513427734375,100746.9453125,25.19071388244629,79091.0
0.9200000166893005,0.5400000214576721,10.899999618530273,9.875,-6.75,-41.6875,-22.0,-0.0625,13.6875,1.0299999713897705,-0.09000000357627869,9.75,-0.65460205078125,-0.0345458984375,0.04144287109375,-0.7540283203125,100747.1015625,25.191560745239258,79131.0
0.8399999737739563,-1.1799999475479126,13.930000305175781,9.875,-6.75,-41.6875,-16.9375,-7.9375,10.8125,1.059999942779541,-0.23000000417232513,9.739999771118164,-0.65203857421875,-0.03338623046875,0.0472412109375,-0.7559814453125,100747.2109375,25.191614151000977,79171.0
0.4399999976158142,1.8600000143051147,10.15999984741211,8.375,-7.1875,-41.875,6.8125,-10.5,9.8125,1.1299999952316284,-0.25,9.729999542236328,-0.6494140625,-0.03564453125,0.05108642578125,-0.75787353515625,100747.0234375,25.19049644470215,79211.0
1.0800000429153442,-1.6200000047683716,10.65999984741211,8.375,-5.6875,-41.375,-25.0625,-16.75,10.6875,1.2300000190734863,-0.38999998569488525,9.720000267028809,-0.64666748046875,-0.0347900390625,0.06005859375,-0.75958251953125,100747.15625,25.190820693969727,79251.0
0.9599999785423279,-1.159999966621399,9.970000267028809,7.875,-5.25,-42.1875,-4.0625,-9.0,7.4375,1.309999942779541,-0.4699999988079071,9.699999809265137,-0.6448974609375,-0.03619384765625,0.06292724609375,-0.76080322265625,100747.3984375,25.191055297851562,79291.0
1.1399999856948853,-0.7699999809265137,9.050000190734863,7.1875,-4.25,-41.75,5.6875,-3.6875,0.9375,1.350000023841858,-0.46000000834465027,9.699999809265137,-0.64459228515625,-0.03814697265625,0.062255859375,-0.760986328125,100746.9140625,25.188350677490234,79331.0
0.6100000143051147,-0.8100000023841858,9.210000038146973,7.1875,-4.25,-41.75,8.9375,-1.625,-0.0625,1.3600000143051147,-0.41999998688697815,9.699999809265137,-0.64447021484375,-0.04058837890625,0.060302734375,-0.76116943359375,100746.3671875,25.185752868652344,79371.0
0.7099999785423279,0.41999998688697815,7.800000190734863,7.375,-4.25,-41.0625,3.0625,-3.0625,-0.5625,1.3700000047683716,-0.3700000047683716,9.699999809265137,-0.6446533203125,-0.0419921875,0.060302734375,-0.76092529296875,100746.296875,25.18265151977539,79411.0
1.0700000524520874,-0.5099999904632568,7.789999961853027,7.375,-5.0,-41.0625,4.375,-2.5625,-4.0,1.3899999856948853,-0.3499999940395355,9.6899995803833,-0.64556884765625,-0.04351806640625,0.059814453125,-0.7601318359375,100746.3046875,25.180307388305664,79451.0
1.1200000047683716,-0.27000001072883606,7.510000228881836,7.0,-4.5625,-41.0625,1.0625,-2.0625,-3.4375,1.409999966621399,-0.33000001311302185,9.6899995803833,-0.64642333984375,-0.04400634765625,0.06011962890625,-0.75933837890625,100746.421875,25.179134368896484,79491.0
1.0700000524520874,-0.5799999833106995,7.940000057220459,7.0,-4.5625,-41.0625,-4.9375,0.1875,-3.5,1.409999966621399,-0.3499999940395355,9.6899995803833,-0.64752197265625,-0.04296875,0.0611572265625,-0.75836181640625,100746.5546875,25.177692413330078,79531.0
0.8999999761581421,-0.7300000190734863,8.5600004196167,7.0,-3.875,-41.875,-1.75,2.5,-6.0,1.399999976158142,-0.36000001430511475,9.6899995803833,-0.649169921875,-0.04217529296875,0.06060791015625,-0.757080078125,100746.75,25.176591873168945,79571.0
0.8299999833106995,-0.3700000047683716,9.1899995803833,5.875,-3.5,-40.6875,1.9375,5.6875,-5.625,1.3799999952316284,-0.3499999940395355,9.699999809265137,-0.65057373046875,-0.041015625,0.05908203125,-0.75604248046875,100746.5078125,25.174625396728516,79611.0
0.3499999940395355,-0.20999999344348907,10.600000381469727,6.5625,-3.5,-41.875,-4.0,2.625,-3.5,1.350000023841858,-0.36000001430511475,9.699999809265137,-0.651611328125,-0.03948974609375,0.059814453125,-0.75518798828125,100746.578125,25.172571182250977,79651.0
0.8299999833106995,-0.23000000417232513,11.319999694824219,6.1875,-3.0625,-40.75,-9.625,-0.5625,-3.375,1.340000033378601,-0.4099999964237213,9.699999809265137,-0.6522216796875,-0.0367431640625,0.062255859375,-0.75457763671875,100746.25,25.169864654541016,79691.0
0.4699999988079071,-1.1100000143051147,12.890000343322754,6.1875,-3.0625,-40.75,-8.4375,4.4375,1.625,1.3300000429153442,-0.46000000834465027,9.699999809265137,-0.6514892578125,-0.0347900390625,0.0628662109375,-0.7552490234375,100746.3125,25.16957664489746,79731.0
0.9700000286102295,-1.0499999523162842,12.15999984741211,7.25,-2.5,-41.0625,17.6875,1.8125,6.625,1.309999942779541,-0.4399999976158142,9.699999809265137,-0.64959716796875,-0.0369873046875,0.05938720703125,-0.757080078125,100746.4375,25.16878318786621,79771.0
1.1399999856948853,0.009999999776482582,10.149999618530273,8.0625,-2.0625,-41.5,-0.75,1.125,10.8125,1.2999999523162842,-0.4099999964237213,9.710000038146973,-0.646728515625,-0.03692626953125,0.05908203125,-0.759521484375,100746.609375,25.167034149169922,79811.0
1.090000033378601,0.0,10.15999984741211,7.25,-2.5,-41.1875,8.75,-3.75,13.0,1.2999999523162842,-0.38999998569488525,9.710000038146973,-0.64306640625,-0.03955078125,0.05780029296875,-0.7625732421875,100745.84375,25.164562225341797,79851.0
1.3799999952316284,0.3700000047683716,9.34000015258789,8.0625,-2.5,-40.375,10.9375,-5.75,15.125,1.3200000524520874,-0.3499999940395355,9.699999809265137,-0.638427734375,-0.04296875,0.05718994140625,-0.76629638671875,100745.5546875,25.161550521850586,79891.0
1.8200000524520874,0.11999999731779099,9.369999885559082,8.0625,-2.5,-40.375,3.75,-7.75,19.8125,1.3700000047683716,-0.3100000023841858,9.699999809265137,-0.63275146484375,-0.04461669921875,0.05780029296875,-0.77093505859375,100745.0859375,25.161027908325195,79931.0
1.2599999904632568,0.4000000059604645,8.039999961853027,8.0625,-2.75,-40.375,3.9375,-1.9375,23.5,1.3899999856948853,-0.3100000023841858,9.699999809265137,-0.62689208984375,-0.04522705078125,0.0582275390625,-0.775634765625,100745.125,25.161226272583008,79971.0
1.1299999952316284,0.47999998927116394,7.480000019073486,7.6875,-3.0625,-40.75,-2.5625,-4.9375,18.3125,1.4199999570846558,-0.3499999940395355,9.6899995803833,-0.622802734375,-0.04522705078125,0.0615234375,-0.77862548828125,100744.984375,25.15904426574707,80011.0
1.5299999713897705,-0.44999998807907104,7.599999904632568,6.875,-3.0625,-40.25,-9.5625,-6.625,11.25,1.4600000381469727,-0.41999998688697815,9.680000305175781,-0.619873046875,-0.04461669921875,0.06494140625,-0.78070068359375,100744.9140625,25.157421112060547,80051.0
1.3799999952316284,-0.27000001072883606,7.659999847412109,6.0625,-4.25,-40.1875,-8.75,-2.375,11.75,1.4700000286102295,-0.46000000834465027,9.680000305175781,-0.61767578125,-0.04351806640625,0.06756591796875,-0.78228759765625,100745.3984375,25.15619468688965,80091.0
1.309999942779541,-0.8299999833106995,8.329999923706055,6.0625,-4.25,-40.1875,-12.5,-4.0625,10.4375,1.4900000095367432,-0.550000011920929,9.670000076293945,-0.614990234375,-0.04205322265625,0.0718994140625,-0.78411865234375,100745.3671875,25.157602310180664,80131.0
1.2899999618530273,-0.550000011920929,8.670000076293945,6.5,-2.0625,-40.25,-9.125,-9.5,11.625,1.5499999523162842,-0.6499999761581421,9.649999618530273,-0.6103515625,-0.04266357421875,0.078857421875,-0.7869873046875,100746.015625,25.158647537231445,80171.0
1.6799999475479126,-0.9700000286102295,9.1899995803833,5.25,-2.0625,-40.6875,-14.75,-18.125,18.375,1.659999966621399,-0.7599999904632568,9.630000114440918,-0.60467529296875,-0.04461669921875,0.08697509765625,-0.79046630859375,100745.9453125,25.155960083007812,80211.0
3.0399999618530273,-1.4500000476837158,10.649999618530273,6.375,-1.6875,-39.875,-9.375,-20.8125,21.75,1.7799999713897705,-0.8500000238418579,9.600000381469727,-0.59857177734375,-0.0474853515625,0.09259033203125,-0.7943115234375,100745.890625,25.1545352935791,80251.0
3.5399999618530273,-0.9599999785423279,11.850000381469727,5.1875,-0.25,-39.875,-3.3125,-12.125,18.5,1.840000033378601,-0.8899999856948853,9.579999923706055,-0.594970703125,-0.04815673828125,0.09503173828125,-0.796630859375,100745.984375,25.152875900268555,80291.0
3.0999999046325684,-1.309999942779541,12.850000381469727,5.1875,-0.25,-39.875,-6.25,2.5625,13.3125,1.850000023841858,-0.949999988079071,9.579999923706055,-0.59173583984375,-0.04534912109375,0.0960693359375,-0.799072265625,100745.984375,25.15105438232422,80331.0
1.7699999809265137,-1.440000057220459,12.029999732971191,5.0625,-0.25,-40.6875,1.375,11.25,10.0625,1.7799999713897705,-0.9900000095367432,9.59000015258789,-0.58892822265625,-0.0419921875,0.09259033203125,-0.8017578125,100745.875,25.148548126220703,80371.0
0.3499999940395355,-0.7300000190734863,10.220000267028809,4.25,-0.1875,-41.0625,-1.375,6.0,6.375,1.7100000381469727,-0.9700000286102295,9.600000381469727,-0.58819580078125,-0.04119873046875,0.092529296875,-0.8023681640625,100745.9765625,25.149539947509766,80411.0
1.340000033378601,-0.7599999904632568,9.399999618530273,5.0,-0.5625,-40.6875,7.875,-1.1875,-4.25,1.7200000286102295,-0.949999988079071,9.600000381469727,-0.59033203125,-0.04327392578125,0.08953857421875,-0.801025390625,100745.734375,25.14914321899414,80451.0
0.949999988079071,0.33000001311302185,8.619999885559082,5.5625,-0.875,-41.5,1.0,2.1875,-15.375,1.7100000381469727,-0.8899999856948853,9.609999656677246,-0.59423828125,-0.042724609375,0.08984375,-0.798095703125,100746.234375,25.14999008178711,80491.0
1.4600000381469727,-1.090000033378601,9.359999656677246,5.5625,-0.875,-41.5,-17.6875,1.5,-30.1875,1.7100000381469727,-0.9399999976158142,9.600000381469727,-0.60296630859375,-0.03948974609375,0.09375,-0.791259765625,100745.453125,25.15004539489746,80531.0
1.4299999475479126,-1.600000023841858,8.479999542236328,4.5625,-0.875,-40.25,-12.9375,8.5625,-35.375,1.7000000476837158,-1.0099999904632568,9.600000381469727,-0.61260986328125,-0.03564453125,0.0943603515625,-0.783935546875,100744.8828125,25.14952278137207,80571.0
0.699999988079071,-1.6200000047683716,8.140000343322754,3.0625,0.1875,-39.5,1.6875,17.0,-30.1875,1.6299999952316284,-1.0,9.609999656677246,-0.62091064453125,-0.03289794921875,0.0894775390625,-0.778076171875,100744.9921875,25.148548126220703,80611.0
0.10999999940395355,-0.5799999833106995,7.550000190734863,4.1875,0.5625,-40.0,12.9375,14.5625,-25.0625,1.5499999523162842,-0.8999999761581421,9.640000343322754,-0.6279296875,-0.0333251953125,0.083984375,-0.77301025390625,100745.1015625,25.147808074951172,80651.0
0.9399999976158142,-0.14000000059604645,7.559999942779541,6.0625,-0.1875,-39.1875,-0.9375,1.0,-36.8125,1.5399999618530273,-0.8399999737739563,9.640000343322754,-0.6376953125,-0.033447265625,0.08355712890625,-0.7650146484375,100745.40625,25.146690368652344,80691.0
0.6299999952316284,-0.6100000143051147,8.170000076293945,6.0625,-0.1875,-39.1875,-7.5,6.4375,-37.6875,1.5299999713897705,-0.8299999833106995,9.640000343322754,-0.6475830078125,-0.03118896484375,0.08380126953125,-0.7567138671875,100745.34375,25.147573471069336,80731.0
0.10000000149011612,-0.41999998688697815,8.8100004196167,6.0625,0.1875,-40.0,-12.3125,3.25,-33.3125,1.5199999809265137,-0.8600000143051147,9.640000343322754,-0.65594482421875,-0.0284423828125,0.0867919921875,-0.749267578125,100745.578125,25.149394989013672,80771.0
0.41999998688697815,-1.090000033378601,10.40999984741211,6.5,1.0,-40.75,-28.1875,-6.625,-24.0625,1.559999942779541,-0.9800000190734863,9.630000114440918,-0.66180419921875,-0.02471923828125,0.09521484375,-0.7431640625,100745.375,25.14728546142578,80811.0
1.0,-2.049999952316284,11.449999809265137,6.75,1.25,-40.0625,-25.6875,-8.75,-16.9375,1.6299999952316284,-1.1399999856948853,9.600000381469727,-0.66583251953125,-0.02178955078125,0.10321044921875,-0.7386474609375,100745.640625,25.14629364013672,80851.0
1.159999966621399,-2.0399999618530273,12.010000228881836,5.6875,2.6875,-40.0625,-19.875,-7.8125,-11.0625,1.690000057220459,-1.2699999809265137,9.569999694824219,-0.66845703125,-0.0196533203125,0.10992431640625,-0.7353515625,100745.53125,25.144977569580078,80891.0
1.7100000381469727,-2.5999999046325684,13.149999618530273,5.6875,2.6875,-40.0625,-17.1875,-6.25,-10.0625,1.75,-1.3799999952316284,9.539999961853027,-0.670654296875,-0.0179443359375,0.1148681640625,-0.73260498046875,100745.09375,25.142253875732422,80931.0
1.5800000429153442,-1.0299999713897705,10.779999732971191,6.1875,4.875,-41.0,0.9375,-0.375,-2.9375,1.7699999809265137,-1.409999966621399,9.539999961853027,-0.6712646484375,-0.01739501953125,0.11566162109375,-0.73193359375,100744.828125,25.14019775390625,80971.0
1.559999942779541,-1.4600000381469727,10.390000343322754,4.5,4.5,-40.75,-8.75,1.1875,3.5,1.7599999904632568,-1.4600000381469727,9.529999732971191,-0.67034912109375,-0.0155029296875,0.11767578125,-0.73248291015625,100744.28125,25.137510299682617,81011.0
1.5299999713897705,-1.3700000047683716,9.9399995803833,6.0,5.5625,-39.6875,-6.8125,-5.0,3.375,1.7799999713897705,-1.5,9.520000457763672,-0.66943359375,-0.01531982421875,0.12030029296875,-0.73291015625,100744.3046875,25.13666343688965,81051.0
1.7999999523162842,-1.6299999952316284,9.239999771118164,5.75,5.1875,-40.6875,0.625,-7.125,0.6875,1.8200000524520874,-1.5299999713897705,9.510000228881836,-0.6690673828125,-0.0172119140625,0.12176513671875,-0.73297119140625,100744.0390625,25.133705139160156,81091.0
2.049999952316284,-1.4500000476837158,9.329999923706055,5.75,5.1875,-40.6875,4.5625,-5.25,-2.6875,1.8600000143051147,-1.5099999904632568,9.5,-0.66949462890625,-0.019775390625,0.1214599609375,-0.7325439453125,100744.265625,25.132640838623047,81131.0
1.75,-0.5699999928474426,7.659999847412109,4.6875,4.5,-42.0,5.9375,-1.375,-4.25,1.8799999952316284,-1.4600000381469727,9.510000228881836,-0.6705322265625,-0.0213623046875,0.12054443359375,-0.731689453125,100744.359375,25.131271362304688,81171.0
1.600000023841858,-0.7099999785423279,7.25,4.6875,4.875,-39.875,-1.75,0.0625,-5.75,1.8899999856948853,-1.440000057220459,9.510000228881836,-0.67193603515625,-0.02099609375,0.120849609375,-0.7303466796875,100744.7578125,25.131397247314453,81211.0
1.5499999523162842,-1.0800000429153442,7.550000190734863,5.375,3.6875,-40.0,-5.0625,3.125,-2.6875,1.8799999952316284,-1.4600000381469727,9.510000228881836,-0.67254638671875,-0.01910400390625,0.12127685546875,-0.72979736328125,100744.5546875,25.130332946777344,81251.0
1.3600000143051147,-1.350000023841858,7.670000076293945,5.375,3.6875,-40.0,-4.6875,5.0625,3.6875,1.850000023841858,-1.5,9.510000228881836,-0.67181396484375,-0.0167236328125,0.1214599609375,-0.73052978515625,100744.578125,25.130117416381836,81291.0
1.3200000524520874,-1.3300000429153442,8.199999809265137,5.0625,4.5625,-39.5625,-5.75,-1.0,4.5625,1.8300000429153442,-1.5399999618530273,9.5,-0.6707763671875,-0.01544189453125,0.1234130859375,-0.73114013671875,100744.0,25.12764549255371,81331.0
2.0799999237060547,-1.2200000286102295,9.020000457763672,4.6875,4.5625,-39.875,-11.875,-3.625,-0.625,1.850000023841858,-1.600000023841858,9.489999771118164,-0.67108154296875,-0.013671875,0.127197265625,-0.73028564453125,100743.640625,25.12578773498535,81371.0
2.390000104904175,-1.6100000143051147,9.8100004196167,3.75,5.0,-39.5625,-15.1875,-4.4375,-7.5625,1.8799999952316284,-1.6799999475479126,9.470000267028809,-0.6729736328125,-0.0115966796875,0.132080078125,-0.7276611328125,100743.640625,25.126131057739258,81411.0
2.930000066757202,-1.8700000047683716,10.869999885559082,4.25,5.6875,-39.875,-18.8125,-4.9375,-14.0,1.9299999475479126,-1.7799999713897705,9.4399995803833,-0.6763916015625,-0.009033203125,0.13763427734375,-0.7235107421875,100743.65625,25.125228881835938,81451.0
3.0299999713897705,-2.1500000953674316,10.989999771118164,4.25,5.6875,-39.875,-18.8125,-0.8125,-16.3125,1.9600000381469727,-1.8799999952316284,9.420000076293945,-0.6805419921875,-0.00537109375,0.141357421875,-0.7188720703125,100743.7265625,25.125139236450195,81491.0
2.9000000953674316,-3.0399999618530273,13.020000457763672,3.1875,5.6875,-39.875,-6.1875,9.75,-16.625,1.940000057220459,-1.9299999475479126,9.40999984741211,-0.68524169921875,-0.003173828125,0.13958740234375,-0.71478271484375,100743.640625,25.12564468383789,81531.0
2.0399999618530273,-0.5600000023841858,10.630000114440918,2.5,6.375,-40.6875,7.5,13.6875,-22.0625,1.8899999856948853,-1.8600000143051147,9.430000305175781,-0.69110107421875,-0.00115966796875,0.13543701171875,-0.7099609375,100743.984375,25.123136520385742,81571.0
1.909999966621399,-1.6299999952316284,9.619999885559082,4.6875,6.875,-39.875,-7.3125,26.0,-17.625,1.7799999713897705,-1.8799999952316284,9.449999809265137,-0.69635009765625,0.00604248046875,0.1304931640625,-0.70574951171875,100743.828125,25.1218204498291,81611.0
0.4300000071525574,-1.4600000381469727,9.270000457763672,3.5,7.0625,-39.875,-1.25,33.3125,-12.4375,1.6399999856948853,-1.8799999952316284,9.479999542236328,-0.7001953125,0.013916015625,0.123779296875,-0.7030029296875,100744.2265625,25.121423721313477,81651.0
-0.46000000834465027,-1.1699999570846558,8.770000457763672,3.5,7.0625,-39.875,-7.625,26.5625,-6.1875,1.4600000381469727,-1.899999976158142,9.5,-0.70196533203125,0.02178955078125,0.1209716796875,-0.7015380859375,100743.953125,25.119386672973633,81691.0
-0.5,-2.049999952316284,8.90999984741211,6.0625,7.1875,-39.1875,-14.625,14.125,-1.3125,1.309999942779541,-2.009999990463257,9.5,-0.70281982421875,0.0281982421875,0.12139892578125,-0.70037841796875,100743.859375,25.11844825744629,81731.0
-0.20999999344348907,-2.4700000286102295,8.130000114440918,6.5,7.1875,-39.25,-12.375,4.0,-5.8125,1.2699999809265137,-2.0899999141693115,9.489999771118164,-0.704345703125,0.03125,0.12310791015625,-0.6983642578125,100743.578125,25.11659049987793,81771.0
0.4000000059604645,-2.609999895095825,7.650000095367432,6.0625,8.0,-39.5625,-2.125,1.125,-9.125,1.2699999809265137,-2.109999895095825,9.489999771118164,-0.70660400390625,0.03076171875,0.1221923828125,-0.69635009765625,100743.28125,25.115760803222656,81811.0
0.23000000417232513,-2.4600000381469727,7.800000190734863,6.875,8.6875,-39.5625,8.6875,2.875,-8.125,1.2699999809265137,-2.069999933242798,9.489999771118164,-0.707763671875,0.03302001953125,0.11962890625,-0.69549560546875,100743.0,25.11514663696289,81851.0
0.15000000596046448,-2.069999933242798,8.15999984741211,6.875,8.6875,-39.5625,13.75,-1.6875,-9.8125,1.2100000381469727,-2.0399999618530273,9.510000228881836,-0.71026611328125,0.02886962890625,0.1171875,-0.69354248046875,100743.0625,25.116409301757812,81891.0
0.5600000023841858,-1.9199999570846558,8.65999984741211,6.0625,7.5625,-39.1875,9.4375,-5.625,-14.0625,1.2699999809265137,-1.940000057220459,9.520000457763672,-0.71405029296875,0.02459716796875,0.11627197265625,-0.68994140625,100743.921875,25.120250701904297,81931.0
0.7400000095367432,-2.059999942779541,9.029999732971191,6.375,7.5625,-39.0625,4.375,0.375,-10.125,1.2899999618530273,-1.8899999856948853,9.529999732971191,-0.71600341796875,0.02374267578125,0.1146240234375,-0.68817138671875,100743.8046875,25.118520736694336,81971.0
0.20000000298023224,-1.600000023841858,9.680000305175781,5.6875,8.0,-38.5625,3.9375,4.3125,-5.125,1.2799999713897705,-1.8600000143051147,9.539999961853027,-0.7171630859375,0.024169921875,0.114013671875,-0.68707275390625,100744.3359375,25.12124252319336,82011.0
0.5,-2.1500000953674316,10.9399995803833,6.5,7.1875,-38.5625,-6.5625,1.0,-3.8125,1.2699999809265137,-1.8799999952316284,9.529999732971191,-0.71771240234375,0.02569580078125,0.11517333984375,-0.686279296875,100744.78125,25.12156867980957,82051.0
0.6200000047683716,-2.3499999046325684,11.930000305175781,6.5,7.1875,-38.5625,-10.0,0.0,-0.75,1.2699999809265137,-1.940000057220459,9.520000457763672,-0.71771240234375,0.02825927734375,0.1175537109375,-0.685791015625,100744.2421875,25.122957229614258,82091.0
0.949999988079071,-2.640000104904175,13.239999771118164,6.5,7.5625,-39.75,-11.9375,1.8125,3.625,1.2599999904632568,-2.009999990463257,9.510000228881836,-0.71673583984375,0.03179931640625,0.119873046875,-0.68621826171875,100744.734375,25.126310348510742,82131.0
1.0399999618530273,-2.3299999237060547,11.84000015258789,6.875,7.5625,-39.75,-2.75,1.3125,4.875,1.2400000095367432,-2.0799999237060547,9.5,-0.7158203125,0.033203125,0.1204833984375,-0.68701171875,100744.7109375,25.129413604736328,82171.0
1.190000057220459,-1.8700000047683716,10.050000190734863,6.75,8.25,-39.0,0.6875,-1.25,-0.875,1.2400000095367432,-2.0899999141693115,9.489999771118164,-0.71612548828125,0.03265380859375,0.1207275390625,-0.6866455078125,100744.375,25.130008697509766,82211.0
1.2599999904632568,-1.5399999618530273,9.539999961853027,7.5,8.0,-38.25,4.4375,-2.375,-3.25,1.2599999904632568,-2.069999933242798,9.5,-0.71673583984375,0.0311279296875,0.12054443359375,-0.68609619140625,100744.296875,25.130441665649414,82251.0
1.2999999523162842,-1.2999999523162842,8.729999542236328,7.5,8.0,-38.25,-5.1875,-2.5,0.6875,1.2799999713897705,-2.069999933242798,9.489999771118164,-0.71624755859375,0.03228759765625,0.12255859375,-0.686279296875,100743.78125,25.12845802307129,82291.0
1.2000000476837158,-2.690000057220459,8.850000381469727,6.75,9.0625,-39.375,-11.8125,-1.9375,5.125,1.2799999713897705,-2.140000104904175,9.479999542236328,-0.71478271484375,0.034423828125,0.12518310546875,-0.6871337890625,100743.609375,25.12755584716797,82331.0
1.059999942779541,-2.200000047683716,7.519999980926514,7.1875,9.0625,-38.0,0.3125,-0.6875,5.9375,1.2899999618530273,-2.1700000762939453,9.470000267028809,-0.71343994140625,0.03436279296875,0.12506103515625,-0.68865966796875,100743.6640625,25.125139236450195,82371.0
1.0099999904632568,-1.840000033378601,7.300000190734863,6.5,9.0625,-39.0625,6.5,0.75,4.4375,1.2799999713897705,-2.1500000953674316,9.479999542236328,-0.7125244140625,0.0330810546875,0.12335205078125,-0.68988037109375,100743.5,25.122758865356445,82411.0
1.2200000286102295,-1.5700000524520874,7.300000190734863,7.5625,8.25,-39.5,4.5,1.9375,1.25,1.2599999904632568,-2.109999895095825,9.489999771118164,-0.7125244140625,0.0328369140625,0.121826171875,-0.69024658203125,100743.1953125,25.12039566040039,82451.0
1.100000023841858,-1.9700000286102295,7.429999828338623,7.5625,8.25,-39.5,0.9375,6.125,-0.4375,1.2400000095367432,-2.0999999046325684,9.489999771118164,-0.7127685546875,0.03387451171875,0.12017822265625,-0.690185546875,100743.0703125,25.119783401489258,82491.0
0.7799999713897705,-1.940000057220459,8.569999694824219,8.0,9.0625,-39.1875,4.3125,3.875,-0.375,1.2000000476837158,-2.0799999237060547,9.5,-0.712890625,0.03363037109375,0.11859130859375,-0.6903076171875,100743.6875,25.121044158935547,82531.0
1.399999976158142,-2.299999952316284,9.0,7.1875,8.6875,-39.875,4.875,-1.25,0.75,1.2000000476837158,-2.059999942779541,9.510000228881836,-0.7127685546875,0.03204345703125,0.1175537109375,-0.69073486328125,100743.96875,25.119674682617188,82571.0
1.3899999856948853,-2.069999933242798,9.739999771118164,7.1875,9.375,-37.5625,11.375,-3.125,-0.375,1.2100000381469727,-2.0,9.520000457763672,-0.7130126953125,0.0283203125,0.1158447265625,-0.69097900390625,100743.921875,25.116933822631836,82611.0
2.0,-1.6100000143051147,11.0600004196167,8.6875,9.0625,-38.375,6.5625,-6.8125,-5.0625,1.2599999904632568,-1.9299999475479126,9.529999732971191,-0.7139892578125,0.0255126953125,0.1163330078125,-0.68994140625,100744.0859375,25.115453720092773,82651.0
1.8899999856948853,-2.2899999618530273,11.720000267028809,8.6875,9.0625,-38.375,-8.375,-2.6875,-5.75,1.2899999618530273,-1.9500000476837158,9.520000457763672,-0.71527099609375,0.02703857421875,0.119140625,-0.6881103515625,100744.53125,25.114336013793945,82691.0
1.4800000190734863,-3.0,12.010000228881836,8.25,8.0,-38.6875,-8.25,-2.0625,-8.6875,1.309999942779541,-2.009999990463257,9.5,-0.71722412109375,0.02789306640625,0.121826171875,-0.685546875,100744.578125,25.114065170288086,82731.0
1.0800000429153442,-3.1700000762939453,11.970000267028809,8.25,9.0625,-39.875,7.5625,-7.5,-15.0,1.3700000047683716,-2.009999990463257,9.489999771118164,-0.72039794921875,0.0242919921875,0.12286376953125,-0.68218994140625,100744.4765625,25.11330795288086,82771.0
1.1299999952316284,-1.5299999713897705,9.880000114440918,8.25,8.5625,-38.6875,-12.5625,-9.5,-13.4375,1.4500000476837158,-2.009999990463257,9.479999542236328,-0.72314453125,0.0242919921875,0.12744140625,-0.67840576171875,100744.2578125,25.111576080322266,82811.0
0.7099999785423279,-1.850000023841858,8.869999885559082,8.25,9.25,-39.875,-8.1875,-4.0,-16.4375,1.5,-2.049999952316284,9.460000038146973,-0.72686767578125,0.02490234375,0.13043212890625,-0.67376708984375,100743.953125,25.10854721069336,82851.0
0.8100000023841858,-2.3499999046325684,9.100000381469727,8.25,9.25,-39.875,-5.0625,1.75,-20.6875,1.5399999618530273,-2.0799999237060547,9.449999809265137,-0.73162841796875,0.02569580078125,0.13128662109375,-0.66839599609375,100743.0546875,25.105697631835938,82891.0
0.33000001311302185,-2.2899999618530273,9.0600004196167,8.0,10.375,-38.5625,-1.5,4.0625,-20.375,1.5399999618530273,-2.0799999237060547,9.449999809265137,-0.73638916015625,0.02569580078125,0.13067626953125,-0.663330078125,100742.8984375,25.104127883911133,82931.0
0.1899999976158142,-1.9500000476837158,8.779999732971191,8.0,9.25,-39.75,5.375,-0.1875,-20.3125,1.559999942779541,-2.0399999618530273,9.460000038146973,-0.740966796875,0.023193359375,0.12957763671875,-0.65850830078125,100742.65625,25.1018009185791,82971.0
0.5799999833106995,-1.7100000381469727,8.199999809265137,8.6875,10.375,-39.75,9.25,-2.8125,-19.625,1.600000023841858,-1.9700000286102295,9.470000267028809,-0.7452392578125,0.019287109375,0.128173828125,-0.654052734375,100742.609375,25.100051879882812,83011.0
0.9800000190734863,-1.7999999523162842,8.119999885559082,8.6875,10.375,-39.75,14.4375,-0.75,-17.6875,1.6399999856948853,-1.8700000047683716,9.479999542236328,-0.7491455078125,0.014892578125,0.125244140625,-0.6502685546875,100742.765625,25.09990882873535,83051.0
0.9399999976158142,-1.1799999475479126,7.619999885559082,9.0625,10.25,-39.0,9.625,1.9375,-14.3125,1.649999976158142,-1.7699999809265137,9.5,-0.75225830078125,0.01275634765625,0.123046875,-0.6470947265625,100742.765625,25.09980010986328,83091.0
0.9200000166893005,-1.440000057220459,8.109999656677246,8.25,10.1875,-40.1875,-1.125,4.625,-9.4375,1.6399999856948853,-1.7400000095367432,9.5,-0.75439453125,0.013916015625,0.122314453125,-0.644775390625,100742.3359375,25.097978591918945,83131.0
0.5,-1.9299999475479126,8.75,8.375,10.1875,-40.0625,-5.4375,3.5,-4.9375,1.6200000047683716,-1.7599999904632568,9.5,-0.75555419921875,0.0157470703125,0.12255859375,-0.64337158203125,100741.953125,25.0954532623291,83171.0
0.3199999928474426,-2.5199999809265137,9.239999771118164,9.5,10.5,-39.25,0.125,0.25,-4.5,1.6100000143051147,-1.7799999713897705,9.5,-0.756591796875,0.01513671875,0.12237548828125,-0.64215087890625,100742.59375,25.095308303833008,83211.0
0.44999998807907104,-2.3299999237060547,9.960000038146973,9.5,10.5,-39.25,7.5625,-1.375,-5.6875,1.6299999952316284,-1.7300000190734863,9.510000228881836,-0.7576904296875,0.01239013671875,0.12103271484375,-0.64117431640625,100742.1796875,25.09402847290039,83251.0
0.6200000047683716,-1.9199999570846558,11.6899995803833,9.25,10.75,-37.6875,3.4375,-4.6875,-4.0625,1.649999976158142,-1.6799999475479126,9.510000228881836,-0.75830078125,0.0106201171875,0.12158203125,-0.640380859375,100742.5390625,25.095380783081055,83291.0
1.7000000476837158,-2.180000066757202,11.90999984741211,9.5625,11.0625,-39.25,-0.8125,2.875,-0.125,1.6699999570846558,-1.6799999475479126,9.510000228881836,-0.75836181640625,0.01141357421875,0.12017822265625,-0.64056396484375,100742.28125,25.093505859375,83331.0
1.0399999618530273,-2.930000066757202,14.220000267028809,10.375,10.25,-38.1875,11.375,10.5,5.5,1.600000023841858,-1.649999976158142,9.529999732971191,-0.75738525390625,0.0107421875,0.11517333984375,-0.64263916015625,100741.9921875,25.092117309570312,83371.0
0.8100000023841858,-0.07000000029802322,10.279999732971191,10.0625,10.25,-39.6875,7.5625,5.25,8.0,1.559999942779541,-1.600000023841858,9.539999961853027,-0.7554931640625,0.01165771484375,0.11376953125,-0.64508056640625,100741.796875,25.09047508239746,83411.0
0.9599999785423279,-1.5199999809265137,10.300000190734863,10.0625,10.25,-39.6875,-2.75,4.0,13.0,1.5199999809265137,-1.6200000047683716,9.550000190734863,-0.7525634765625,0.01275634765625,0.11376953125,-0.6484375,100741.1640625,25.087535858154297,83451.0
1.5800000429153442,-1.2599999904632568,9.5,9.6875,10.1875,-39.25,-1.6875,-3.0625,12.0625,1.5199999809265137,-1.6399999856948853,9.539999961853027,-0.75,0.012939453125,0.11474609375,-0.65130615234375,100741.390625,25.08820343017578,83491.0
1.659999966621399,-1.440000057220459,9.420000076293945,10.0625,10.5625,-38.875,-3.6875,-2.125,5.0625,1.5199999809265137,-1.6699999570846558,9.539999961853027,-0.74908447265625,0.013427734375,0.11572265625,-0.65216064453125,100741.4296875,25.08639907836914,83531.0
1.5499999523162842,-1.7100000381469727,8.789999961853027,10.0625,9.75,-38.75,3.0,0.375,-5.4375,1.5299999713897705,-1.659999966621399,9.539999961853027,-0.75054931640625,0.012451171875,0.1148681640625,-0.650634765625,100741.53125,25.08562469482422,83571.0
