Accel_X,Accel_Y,Accel_Z,Magneto_X,Magneto_Y,Magneto_Z,Gyro_X,Gyro_Y,Gyro_Z,Gravity_X,Gravity_Y,Gravity_Z,Quaternion_W,Quaternion_X,Quaternion_Y,Quaternion_Z,Pressure,Temperature,Time
0.41999998688697815,1.7899999618530273,9.220000267028809,-14.0625,-29.6875,-46.375,-1.625,-4.125,20.875,0.23000000417232513,1.6299999952316284,9.65999984741211,0.27392578125,0.01068115234375,-0.083740234375,-0.9580078125,83064.8515625,23.358642578125,43178.0
0.33000001311302185,1.5,9.5,-14.75,-28.875,-46.0,-4.1875,-2.1875,21.8125,0.27000001072883606,1.600000023841858,9.670000076293945,0.2813720703125,0.00897216796875,-0.08270263671875,-0.95599365234375,100638.4296875,26.288209915161133,43218.0
0.3499999940395355,1.3300000429153442,9.770000457763672,-14.75,-28.875,-46.0,0.3125,-3.0625,22.0,0.3199999928474426,1.590000033378601,9.670000076293945,0.2890625,0.00738525390625,-0.08294677734375,-0.95367431640625,100638.03125,26.30840492248535,43258.0
0.4699999988079071,1.440000057220459,9.770000457763672,-16.25,-29.25,-44.375,5.4375,-3.875,20.5625,0.36000001430511475,1.600000023841858,9.65999984741211,0.29571533203125,0.00592041015625,-0.08477783203125,-0.95147705078125,100636.890625,26.338552474975586,43298.0
0.6100000143051147,1.8600000143051147,9.680000305175781,-16.25,-29.25,-45.1875,5.625,-3.625,18.375,0.4099999964237213,1.6399999856948853,9.649999618530273,0.3016357421875,0.00482177734375,-0.0870361328125,-0.949462890625,100635.21875,26.373859405517578,43338.0
0.7599999904632568,2.009999990463257,9.59000015258789,-18.0625,-28.875,-45.1875,1.8125,-2.25,16.9375,0.44999998807907104,1.649999976158142,9.649999618530273,0.3096923828125,0.00341796875,-0.08856201171875,-0.94671630859375,100634.1484375,26.410715103149414,43378.0
0.7599999904632568,1.899999976158142,9.550000190734863,-18.0625,-28.875,-45.1875,-1.875,-0.625,15.4375,0.49000000953674316,1.659999966621399,9.649999618530273,0.31378173828125,0.00250244140625,-0.0887451171875,-0.9453125,100633.3984375,26.447587966918945,43418.0
0.800000011920929,1.659999966621399,9.670000076293945,-17.75,-28.5,-44.875,-3.9375,1.5,13.875,0.5099999904632568,1.6399999856948853,9.649999618530273,0.31964111328125,0.001708984375,-0.08770751953125,-0.9434814453125,100631.9296875,26.477556228637695,43458.0
0.7599999904632568,1.4700000286102295,9.720000267028809,-18.75,-27.875,-44.375,-1.875,3.4375,11.4375,0.5099999904632568,1.6100000143051147,9.649999618530273,0.32354736328125,0.0020751953125,-0.08660888671875,-0.94219970703125,100631.203125,26.503503799438477,43498.0
0.6499999761581421,1.5099999904632568,9.600000381469727,-18.0625,-27.875,-44.75,0.625,4.5,9.8125,0.5,1.6100000143051147,9.65999984741211,0.32696533203125,0.00299072265625,-0.086181640625,-0.94110107421875,100630.3125,26.525842666625977,43538.0
0.5600000023841858,1.6299999952316284,9.600000381469727,-19.1875,-27.875,-46.0,0.6875,4.5,8.8125,0.47999998927116394,1.6100000143051147,9.65999984741211,0.3304443359375,0.00421142578125,-0.0859375,-0.93988037109375,100629.8515625,26.544902801513672,43578.0
0.6399999856948853,1.5299999713897705,9.630000114440918,-19.1875,-27.875,-46.0,1.6875,5.1875,8.6875,0.46000000834465027,1.6100000143051147,9.65999984741211,0.33349609375,0.00567626953125,-0.0859375,-0.9388427734375,100629.5078125,26.564393997192383,43618.0
0.5899999737739563,1.5,9.600000381469727,-18.75,-27.875,-45.5625,1.5,6.6875,9.0,0.4300000071525574,1.6200000047683716,9.65999984741211,0.336669921875,0.00750732421875,-0.085693359375,-0.93768310546875,100629.21875,26.579574584960938,43658.0
0.4699999988079071,1.3600000143051147,9.739999771118164,-19.1875,-28.1875,-45.1875,6.125,8.25,9.875,0.4000000059604645,1.6299999952316284,9.65999984741211,0.34002685546875,0.01007080078125,-0.086181640625,-0.9364013671875,100628.625,26.590970993041992,43698.0
0.28999999165534973,1.8799999952316284,9.680000305175781,-17.75,-27.5,-44.875,6.5,7.875,9.875,0.3499999940395355,1.6799999475479126,9.649999618530273,0.34326171875,0.01300048828125,-0.08746337890625,-0.93505859375,100627.9375,26.600671768188477,43738.0
0.3100000023841858,2.119999885559082,9.600000381469727,-17.75,-28.1875,-44.875,3.75,6.875,10.375,0.33000001311302185,1.7000000476837158,9.649999618530273,0.34625244140625,0.01513671875,-0.0875244140625,-0.93389892578125,100627.90625,26.61026382446289,43778.0
0.23000000417232513,1.7899999618530273,9.720000267028809,-17.75,-28.1875,-44.875,-3.5,6.0625,9.125,0.30000001192092896,1.690000057220459,9.649999618530273,0.349365234375,0.016357421875,-0.08575439453125,-0.93292236328125,100628.4453125,26.620342254638672,43818.0
0.27000001072883606,1.6799999475479126,9.649999618530273,-18.0625,-27.0625,-45.25,-7.0625,5.9375,6.375,0.25999999046325684,1.6399999856948853,9.65999984741211,0.35162353515625,0.0172119140625,-0.0830078125,-0.93231201171875,100628.203125,26.62674331665039,43858.0
0.0,1.4900000095367432,9.899999618530273,-17.375,-26.375,-44.375,-8.6875,4.6875,5.6875,0.23000000417232513,1.590000033378601,9.670000076293945,0.3536376953125,0.01776123046875,-0.079833984375,-0.93182373046875,100627.734375,26.632116317749023,43898.0
0.05999999865889549,1.3600000143051147,9.890000343322754,-19.875,-27.0625,-46.5,-3.75,1.875,4.9375,0.2199999988079071,1.5499999523162842,9.670000076293945,0.35687255859375,0.01788330078125,-0.078125,-0.93072509765625,100627.4140625,26.636714935302734,43938.0
0.15000000596046448,1.2699999809265137,9.6899995803833,-18.0625,-26.0,-45.1875,-2.625,1.3125,4.1875,0.20999999344348907,1.5299999713897705,9.680000305175781,0.3583984375,0.01788330078125,-0.07696533203125,-0.93023681640625,100627.4140625,26.64133071899414,43978.0
0.20000000298023224,1.5399999618530273,9.520000457763672,-18.0625,-26.0,-45.1875,-1.625,0.6875,3.75,0.20999999344348907,1.5199999809265137,9.680000305175781,0.35955810546875,0.017822265625,-0.07635498046875,-0.9298095703125,100627.5390625,26.648832321166992,44018.0
0.2800000011920929,1.559999942779541,9.489999771118164,-19.1875,-27.5,-46.375,-3.3125,0.9375,2.375,0.20999999344348907,1.5,9.680000305175781,0.36065673828125,0.0177001953125,-0.07513427734375,-0.92950439453125,100627.3984375,26.652149200439453,44058.0
0.23999999463558197,1.3300000429153442,9.649999618530273,-18.75,-26.0,-46.0,-3.75,2.8125,-0.1875,0.1899999976158142,1.4700000286102295,9.6899995803833,0.360595703125,0.0181884765625,-0.0736083984375,-0.92962646484375,100627.546875,26.65463638305664,44098.0
-0.029999999329447746,1.2699999809265137,9.760000228881836,-18.0625,-26.6875,-46.0,0.0625,3.75,-3.0625,0.17000000178813934,1.4600000381469727,9.6899995803833,0.35894775390625,0.0196533203125,-0.07330322265625,-0.9302978515625,100627.4296875,26.657072067260742,44138.0
-0.05000000074505806,1.4199999570846558,9.699999809265137,-18.0625,-25.25,-46.75,2.375,1.25,-7.6875,0.15000000596046448,1.4700000286102295,9.6899995803833,0.35675048828125,0.0203857421875,-0.07373046875,-0.93109130859375,100626.90625,26.659486770629883,44178.0
-0.14000000059604645,1.6100000143051147,9.649999618530273,-18.0625,-25.25,-46.75,2.8125,-1.4375,-21.9375,0.12999999523162842,1.5,9.6899995803833,0.348876953125,0.02105712890625,-0.07452392578125,-0.9339599609375,100627.578125,26.665328979492188,44218.0
-0.2199999988079071,1.6699999570846558,9.6899995803833,-17.375,-25.6875,-46.75,-1.1875,-5.875,-38.125,0.10999999940395355,1.5099999904632568,9.680000305175781,0.33636474609375,0.02056884765625,-0.07464599609375,-0.93853759765625,100627.296875,26.667402267456055,44258.0
-0.25,1.4800000190734863,9.770000457763672,-16.5625,-26.375,-46.375,-2.9375,-9.0625,-40.4375,0.10999999940395355,1.5,9.680000305175781,0.32330322265625,0.01904296875,-0.07440185546875,-0.94317626953125,100627.3515625,26.66779899597168,44298.0
0.019999999552965164,1.5700000524520874,9.65999984741211,-16.25,-27.5,-46.0,-1.375,-12.5625,-36.1875,0.12999999523162842,1.4900000095367432,9.6899995803833,0.3115234375,0.0159912109375,-0.07501220703125,-0.9471435546875,100627.25,26.667530059814453,44338.0
0.2800000011920929,1.4600000381469727,9.680000305175781,-16.5625,-27.5,-46.0,-3.0,-10.875,-28.1875,0.18000000715255737,1.4800000190734863,9.6899995803833,0.30267333984375,0.0130615234375,-0.0750732421875,-0.9500732421875,100626.8984375,26.664445877075195,44378.0
0.20999999344348907,1.3700000047683716,9.670000076293945,-16.5625,-27.5,-46.0,-2.0625,-8.4375,-21.8125,0.20999999344348907,1.4700000286102295,9.6899995803833,0.29571533203125,0.0106201171875,-0.07513427734375,-0.9522705078125,100627.0546875,26.663850784301758,44418.0
0.3199999928474426,1.309999942779541,9.6899995803833,-15.875,-27.5,-46.0,0.0625,-8.0625,-17.75,0.25,1.4600000381469727,9.6899995803833,0.29058837890625,0.00848388671875,-0.0758056640625,-0.95379638671875,100626.71875,26.662841796875,44458.0
0.41999998688697815,1.3300000429153442,9.710000038146973,-16.25,-27.5,-46.0,0.6875,-6.6875,-15.5,0.2800000011920929,1.4600000381469727,9.6899995803833,0.28546142578125,0.0067138671875,-0.07666015625,-0.95526123046875,100626.640625,26.661489486694336,44498.0
0.4399999976158142,1.3799999952316284,9.720000267028809,-15.5625,-28.1875,-45.25,2.6875,-5.125,-14.5625,0.3100000023841858,1.4800000190734863,9.680000305175781,0.28070068359375,0.0054931640625,-0.07781982421875,-0.95660400390625,100626.59375,26.65991973876953,44538.0
0.49000000953674316,1.4800000190734863,9.5600004196167,-15.5625,-28.5,-45.6875,3.625,-4.25,-13.875,0.33000001311302185,1.5,9.680000305175781,0.27618408203125,0.0047607421875,-0.07928466796875,-0.95782470703125,100626.53125,26.66046142578125,44578.0
0.41999998688697815,1.5099999904632568,9.670000076293945,-15.5625,-28.5,-45.6875,2.75,-2.25,-12.4375,0.3400000035762787,1.5199999809265137,9.680000305175781,0.27215576171875,0.0045166015625,-0.080322265625,-0.9588623046875,100626.4140625,26.662012100219727,44618.0
0.4099999964237213,1.399999976158142,9.6899995803833,-15.1875,-28.875,-44.5,2.4375,-1.6875,-10.625,0.3400000035762787,1.5399999618530273,9.670000076293945,0.26898193359375,0.00445556640625,-0.081298828125,-0.959716796875,100626.7578125,26.664337158203125,44658.0
0.44999998807907104,1.440000057220459,9.6899995803833,-15.1875,-28.1875,-45.25,5.0625,-0.6875,-9.125,0.3400000035762787,1.559999942779541,9.670000076293945,0.26605224609375,0.00494384765625,-0.0830078125,-0.96038818359375,100626.921875,26.66377830505371,44698.0
0.36000001430511475,1.600000023841858,9.720000267028809,-14.75,-30.375,-46.0625,8.6875,0.0,-8.0,0.33000001311302185,1.6100000143051147,9.65999984741211,0.26318359375,0.00592041015625,-0.0858154296875,-0.96087646484375,100626.03125,26.66278648376465,44738.0
0.3100000023841858,1.909999966621399,9.720000267028809,-14.0625,-30.375,-45.25,9.8125,-0.0625,-7.75,0.3199999928474426,1.6799999475479126,9.649999618530273,0.26007080078125,0.00689697265625,-0.08892822265625,-0.96148681640625,100626.109375,26.664337158203125,44778.0
0.28999999165534973,2.200000047683716,9.65999984741211,-14.0625,-30.375,-45.25,6.625,-1.1875,-8.125,0.3199999928474426,1.7300000190734863,9.640000343322754,0.25823974609375,0.00726318359375,-0.09088134765625,-0.9617919921875,100625.828125,26.6632022857666,44818.0
0.28999999165534973,2.049999952316284,9.539999961853027,-15.875,-30.375,-45.0,-0.25,-2.6875,-9.0,0.3199999928474426,1.7599999904632568,9.640000343322754,0.255126953125,0.0067138671875,-0.091552734375,-0.9625244140625,100626.03125,26.664661407470703,44858.0
0.4399999976158142,1.6100000143051147,9.550000190734863,-14.75,-31.0625,-45.25,-4.8125,-4.3125,-11.625,0.33000001311302185,1.7400000095367432,9.640000343322754,0.2509765625,0.00531005859375,-0.0904541015625,-0.9637451171875,100626.03125,26.66574478149414,44898.0
0.4699999988079071,1.4600000381469727,9.619999885559082,-14.75,-31.0625,-44.5,-2.375,-4.8125,-17.1875,0.3499999940395355,1.7200000286102295,9.640000343322754,0.2449951171875,0.00408935546875,-0.09014892578125,-0.96533203125,100626.1171875,26.665401458740234,44938.0
0.49000000953674316,1.440000057220459,9.779999732971191,-14.0625,-31.0625,-45.25,2.0625,-5.5625,-23.125,0.36000001430511475,1.7200000286102295,9.640000343322754,0.2371826171875,0.00286865234375,-0.091064453125,-0.9671630859375,100625.9921875,26.666303634643555,44978.0
0.5699999928474426,1.6799999475479126,9.670000076293945,-14.0625,-31.0625,-45.25,5.875,-4.125,-25.6875,0.3700000047683716,1.75,9.640000343322754,0.22857666015625,0.00274658203125,-0.09332275390625,-0.96905517578125,100625.8671875,26.666410446166992,45018.0
0.3799999952316284,2.390000104904175,9.550000190734863,-13.375,-31.0625,-44.5,7.8125,-2.1875,-24.9375,0.3499999940395355,1.809999942779541,9.630000114440918,0.21954345703125,0.003173828125,-0.09539794921875,-0.970947265625,100626.0234375,26.66763687133789,45058.0
0.3700000047683716,1.6799999475479126,9.550000190734863,-12.5625,-31.875,-45.0,-1.5,-4.4375,-36.0625,0.3400000035762787,1.8200000524520874,9.619999885559082,0.2064208984375,0.00274658203125,-0.095703125,-0.9737548828125,100625.9453125,26.66913414001465,45098.0
0.18000000715255737,2.2100000381469727,9.520000457763672,-12.375,-32.1875,-44.0625,-12.4375,-10.625,-60.1875,0.33000001311302185,1.7999999523162842,9.630000114440918,0.1837158203125,-0.0001220703125,-0.09271240234375,-0.97857666015625,100625.9296875,26.670827865600586,45138.0
0.4000000059604645,1.840000033378601,9.630000114440918,-11.6875,-32.1875,-45.6875,-13.0,-18.1875,-93.4375,0.3400000035762787,1.7400000095367432,9.640000343322754,0.152099609375,-0.00390625,-0.08941650390625,-0.98431396484375,100625.7734375,26.672109603881836,45178.0
0.5699999928474426,0.4399999976158142,9.550000190734863,-11.6875,-32.1875,-45.6875,-5.125,-14.3125,-93.0,0.33000001311302185,1.690000057220459,9.649999618530273,0.12091064453125,-0.00592041015625,-0.08935546875,-0.9886474609375,100625.828125,26.673641204833984,45218.0
0.46000000834465027,1.4600000381469727,9.529999732971191,-9.6875,-32.5,-44.5,6.375,-10.0,-84.0625,0.3100000023841858,1.7400000095367432,9.640000343322754,0.09283447265625,-0.0062255859375,-0.09246826171875,-0.9913330078125,100625.015625,26.673065185546875,45258.0
0.3799999952316284,1.8600000143051147,9.529999732971191,-7.5,-33.25,-45.25,10.6875,-3.875,-67.8125,0.25999999046325684,1.8200000524520874,9.630000114440918,0.07073974609375,-0.00506591796875,-0.0963134765625,-0.9927978515625,100624.4453125,26.673208236694336,45298.0
-0.05999999865889549,2.009999990463257,9.609999656677246,-6.0625,-34.0,-44.0625,10.125,-4.3125,-50.375,0.20999999344348907,1.899999976158142,9.609999656677246,0.05419921875,-0.00494384765625,-0.09954833984375,-0.9935302734375,100624.6953125,26.67389488220215,45338.0
0.03999999910593033,2.1500000953674316,9.680000305175781,-6.0625,-34.0,-44.0625,5.1875,-8.5625,-38.875,0.20000000298023224,1.9500000476837158,9.600000381469727,0.041015625,-0.0064697265625,-0.1014404296875,-0.99395751953125,100624.515625,26.676130294799805,45378.0
0.25,2.049999952316284,9.850000381469727,-4.5625,-35.5,-44.0625,4.0,-8.625,-34.75,0.20999999344348907,1.9800000190734863,9.600000381469727,0.029052734375,-0.00811767578125,-0.103271484375,-0.99420166015625,100624.53125,26.67609405517578,45418.0
0.5,2.140000104904175,9.779999732971191,-2.875,-34.375,-44.0625,7.25,-5.8125,-31.5625,0.20999999344348907,2.0299999713897705,9.59000015258789,0.01806640625,-0.00909423828125,-0.1058349609375,-0.99420166015625,100624.578125,26.675479888916016,45458.0
0.3400000035762787,2.140000104904175,9.649999618530273,-2.0625,-34.75,-43.0,6.125,-3.625,-31.5,0.20000000298023224,2.0799999237060547,9.579999923706055,0.0074462890625,-0.00927734375,-0.10797119140625,-0.99407958984375,100625.21875,26.676742553710938,45498.0
0.30000001192092896,2.1500000953674316,9.609999656677246,-0.875,-35.5,-44.5,4.375,-3.625,-30.375,0.18000000715255737,2.109999895095825,9.569999694824219,-0.003173828125,-0.009521484375,-0.109375,-0.99395751953125,100625.4140625,26.677698135375977,45538.0
0.38999998569488525,1.9900000095367432,9.579999923706055,-0.875,-35.5,-44.5,3.8125,-1.125,-23.3125,0.17000000178813934,2.130000114440918,9.5600004196167,-0.009521484375,-0.0093994140625,-0.11053466796875,-0.9937744140625,100625.59375,26.67784309387207,45578.0
0.6000000238418579,1.840000033378601,9.619999885559082,-0.5625,-35.875,-43.6875,8.1875,5.625,-3.5625,0.15000000596046448,2.1600000858306885,9.5600004196167,-0.00921630859375,-0.00775146484375,-0.1131591796875,-0.9935302734375,100625.5546875,26.678510665893555,45618.0
0.9200000166893005,1.909999966621399,9.619999885559082,0.0625,-36.1875,-43.25,17.75,20.875,33.4375,0.09000000357627869,2.25,9.539999961853027,0.005615234375,-0.0025634765625,-0.1192626953125,-0.99285888671875,100625.703125,26.67730140686035,45658.0
1.2599999904632568,2.1600000858306885,9.510000228881836,0.0,-36.5625,-42.1875,30.75,41.0,98.625,0.009999999776482582,2.4100000858306885,9.5,0.04388427734375,0.00787353515625,-0.12933349609375,-0.9906005859375,100626.140625,26.677536010742188,45698.0
1.0299999713897705,3.380000114440918,9.119999885559082,-0.6875,-36.5625,-41.0,33.625,57.6875,156.875,-0.05999999865889549,2.569999933242798,9.460000038146973,0.107421875,0.0218505859375,-0.13922119140625,-0.98419189453125,100625.5,26.676563262939453,45738.0
1.2100000381469727,3.700000047683716,9.029999732971191,-0.6875,-36.5625,-41.0,28.0,76.25,220.625,-0.14000000059604645,2.7799999713897705,9.399999618530273,0.1900634765625,0.03912353515625,-0.14617919921875,-0.97003173828125,100625.625,26.677555084228516,45778.0
1.0700000524520874,3.7200000286102295,8.9399995803833,-2.875,-38.5,-41.0,23.6875,94.375,263.3125,-0.23000000417232513,3.0199999809265137,9.319999694824219,0.28265380859375,0.05999755859375,-0.15032958984375,-0.94549560546875,100625.5390625,26.67888832092285,45818.0
0.2199999988079071,4.199999809265137,8.8100004196167,-8.25,-38.0625,-39.75,22.5625,108.9375,281.6875,-0.3199999928474426,3.2100000381469727,9.25,0.37615966796875,0.0821533203125,-0.151123046875,-0.91046142578125,100624.828125,26.67699432373047,45858.0
-0.4099999964237213,3.880000114440918,8.829999923706055,-13.0,-35.5625,-40.875,17.25,108.4375,277.5625,-0.3700000047683716,3.390000104904175,9.1899995803833,0.462158203125,0.10260009765625,-0.150146484375,-0.86798095703125,100625.125,26.67730140686035,45898.0
-0.6899999976158142,3.880000114440918,8.869999885559082,-18.1875,-33.0,-40.875,21.0625,97.6875,255.875,-0.3799999952316284,3.5299999713897705,9.130000114440918,0.51873779296875,0.11627197265625,-0.15008544921875,-0.83355712890625,100624.84375,26.676959991455078,45938.0
-0.5699999928474426,4.519999980926514,8.760000228881836,-18.1875,-33.0,-40.875,23.1875,84.375,224.8125,-0.3499999940395355,3.7300000190734863,9.050000190734863,0.58221435546875,0.13201904296875,-0.14996337890625,-0.7880859375,100624.5546875,26.678438186645508,45978.0
-0.8899999856948853,4.949999809265137,8.899999618530273,-20.75,-29.875,-42.375,13.3125,71.0,184.4375,-0.2800000011920929,3.9100000858306885,8.979999542236328,0.64202880859375,0.1456298828125,-0.1463623046875,-0.7384033203125,100624.6484375,26.68011474609375,46018.0
-1.1399999856948853,4.949999809265137,8.779999732971191,-24.0,-26.1875,-43.875,5.1875,55.4375,139.5625,-0.23999999463558197,3.9700000286102295,8.960000038146973,0.67529296875,0.15167236328125,-0.1419677734375,-0.70770263671875,100624.9921875,26.679645538330078,46058.0
-0.8399999737739563,4.03000020980835,8.930000305175781,-24.375,-23.25,-45.5,-5.3125,38.75,102.8125,-0.20999999344348907,3.9700000286102295,8.960000038146973,0.69873046875,0.1546630859375,-0.1376953125,-0.68475341796875,100624.78125,26.67814826965332,46098.0
-1.0299999713897705,3.809999942779541,8.9399995803833,-24.0,-20.6875,-44.75,-0.125,27.0,73.3125,-0.18000000715255737,3.9700000286102295,8.960000038146973,0.7109375,0.1566162109375,-0.1363525390625,-0.671875,100625.25,26.68105125427246,46138.0
-0.800000011920929,4.260000228881836,8.899999618530273,-24.0,-20.6875,-44.75,2.375,14.75,47.4375,-0.14000000059604645,3.990000009536743,8.949999809265137,0.72186279296875,0.15814208984375,-0.13580322265625,-0.65985107421875,100625.2109375,26.6832332611084,46178.0
-0.5199999809265137,4.320000171661377,8.880000114440918,-24.5,-18.75,-46.375,0.6875,8.5,31.3125,-0.10000000149011612,4.0,8.949999809265137,0.7283935546875,0.15850830078125,-0.13555908203125,-0.65264892578125,100625.140625,26.68487548828125,46218.0
-0.4099999964237213,4.440000057220459,8.890000343322754,-24.875,-18.75,-44.875,-4.875,5.5625,23.125,-0.07000000029802322,3.9800000190734863,8.949999809265137,0.7352294921875,0.15728759765625,-0.1337890625,-0.64556884765625,100625.5,26.68956184387207,46258.0
-0.33000001311302185,3.9000000953674316,8.9399995803833,-24.75,-17.25,-47.1875,-7.5625,4.0625,18.75,-0.05000000074505806,3.950000047683716,8.970000267028809,0.738525390625,0.156005859375,-0.13262939453125,-0.64239501953125,100625.0859375,26.692501068115234,46298.0
-0.27000001072883606,3.9000000953674316,8.949999809265137,-25.5,-16.5625,-47.1875,-5.6875,2.5,14.375,-0.029999999329447746,3.9100000858306885,8.989999771118164,0.7420654296875,0.154541015625,-0.13140869140625,-0.638916015625,100625.25,26.694141387939453,46338.0
-0.3100000023841858,3.880000114440918,8.960000038146973,-25.5,-16.5625,-47.1875,-5.0625,1.75,11.375,-0.009999999776482582,3.880000114440918,9.0,0.744384765625,0.15338134765625,-0.13031005859375,-0.63671875,100625.40625,26.695350646972656,46378.0
-0.28999999165534973,3.9600000381469727,8.9399995803833,-25.5,-17.0,-46.375,-5.0625,0.5625,8.1875,0.0,3.8499999046325684,9.010000228881836,0.74627685546875,0.1522216796875,-0.12921142578125,-0.63494873046875,100625.390625,26.694538116455078,46418.0
-0.3400000035762787,3.8399999141693115,8.960000038146973,-24.375,-15.875,-46.75,-5.75,-0.9375,5.5625,0.0,3.819999933242798,9.029999732971191,0.74749755859375,0.15069580078125,-0.128173828125,-0.63409423828125,100625.671875,26.693925857543945,46458.0
-0.23000000417232513,3.7699999809265137,9.039999961853027,-25.1875,-15.5,-47.1875,-5.8125,-4.625,1.0625,0.009999999776482582,3.7799999713897705,9.039999961853027,0.74761962890625,0.14849853515625,-0.1279296875,-0.634521484375,100625.265625,26.6934757232666,46498.0
-0.17000000178813934,3.809999942779541,9.109999656677246,-26.1875,-15.5,-46.375,-4.1875,-6.3125,-2.375,0.03999999910593033,3.75,9.050000190734863,0.74676513671875,0.14605712890625,-0.12841796875,-0.635986328125,100625.25,26.693710327148438,46538.0
-0.07999999821186066,3.6600000858306885,9.119999885559082,-26.1875,-15.5,-46.375,-5.5,-8.5,-5.75,0.07000000029802322,3.7200000286102295,9.069999694824219,0.7452392578125,0.14312744140625,-0.12908935546875,-0.6383056640625,100625.046875,26.693294525146484,46578.0
0.20000000298023224,3.5799999237060547,9.100000381469727,-25.875,-15.5,-47.5625,-5.75,-10.25,-9.5625,0.10999999940395355,3.690000057220459,9.079999923706055,0.74359130859375,0.14068603515625,-0.1297607421875,-0.64068603515625,100624.84375,26.69358253479004,46618.0
0.029999999329447746,3.759999990463257,9.180000305175781,-27.6875,-15.875,-46.375,-3.9375,-9.625,-11.9375,0.14000000059604645,3.6500000953674316,9.09000015258789,0.73992919921875,0.1376953125,-0.13079833984375,-0.645263671875,100625.3984375,26.693204879760742,46658.0
0.20999999344348907,3.809999942779541,9.170000076293945,-27.375,-15.5,-47.1875,-6.1875,-11.0,-12.375,0.18000000715255737,3.619999885559082,9.100000381469727,0.7369384765625,0.13433837890625,-0.1317138671875,-0.64923095703125,100626.171875,26.694087982177734,46698.0
0.3499999940395355,3.569999933242798,9.260000228881836,-26.1875,-15.0625,-46.75,-8.25,-9.8125,-9.5,0.2199999988079071,3.5799999237060547,9.119999885559082,0.73468017578125,0.1304931640625,-0.1319580078125,-0.65252685546875,100625.7890625,26.69358253479004,46738.0
0.3799999952316284,3.5,9.210000038146973,-26.1875,-15.0625,-46.75,-8.5,-8.0625,-4.8125,0.25999999046325684,3.5299999713897705,9.140000343322754,0.73345947265625,0.1268310546875,-0.1319580078125,-0.65460205078125,100626.0703125,26.69378089904785,46778.0
0.4399999976158142,3.2300000190734863,9.25,-27.6875,-15.0625,-46.375,-9.0625,-6.0,-1.9375,0.28999999165534973,3.4700000286102295,9.15999984741211,0.73309326171875,0.1231689453125,-0.13140869140625,-0.65582275390625,100625.890625,26.69278907775879,46818.0
0.3700000047683716,3.240000009536743,9.270000457763672,-27.375,-15.0625,-46.375,-7.375,-3.3125,-0.625,0.3199999928474426,3.4200000762939453,9.180000305175781,0.73309326171875,0.120361328125,-0.130615234375,-0.65655517578125,100625.8671875,26.692609786987305,46858.0
0.30000001192092896,3.2200000286102295,9.270000457763672,-27.6875,-14.5,-46.375,-6.3125,-1.5,1.5,0.33000001311302185,3.369999885559082,9.1899995803833,0.73358154296875,0.11822509765625,-0.12945556640625,-0.6566162109375,100625.40625,26.69363784790039,46898.0
0.20999999344348907,3.0199999809265137,9.300000190734863,-28.75,-14.5,-46.375,-5.375,-0.3125,4.3125,0.3400000035762787,3.3299999237060547,9.210000038146973,0.734619140625,0.11639404296875,-0.1280517578125,-0.656005859375,100625.1796875,26.69325828552246,46938.0
0.2800000011920929,3.049999952316284,9.229999542236328,-28.75,-14.5,-46.375,-3.1875,-0.875,6.8125,0.3499999940395355,3.299999952316284,9.220000267028809,0.7362060546875,0.114990234375,-0.12744140625,-0.6546630859375,100625.53125,26.694700241088867,46978.0
0.23000000417232513,2.9800000190734863,9.279999732971191,-26.5625,-14.0625,-46.375,-0.125,-0.4375,8.375,0.3700000047683716,3.2799999713897705,9.229999542236328,0.738037109375,0.1142578125,-0.12725830078125,-0.65277099609375,100625.3046875,26.69405174255371,47018.0
0.3499999940395355,2.9200000762939453,9.229999542236328,-27.375,-13.6875,-46.375,3.75,-2.1875,8.0625,0.38999998569488525,3.2799999713897705,9.229999542236328,0.7396240234375,0.114013671875,-0.12835693359375,-0.6507568359375,100625.3828125,26.694719314575195,47058.0
0.4300000071525574,3.140000104904175,9.210000038146973,-27.6875,-13.0,-46.75,8.1875,-1.375,8.0625,0.41999998688697815,3.319999933242798,9.210000038146973,0.74151611328125,0.11541748046875,-0.13128662109375,-0.64776611328125,100625.0390625,26.695205688476562,47098.0
0.5299999713897705,3.380000114440918,9.1899995803833,-27.6875,-13.0,-46.75,9.5,-1.5625,9.1875,0.44999998807907104,3.369999885559082,9.1899995803833,0.742431640625,0.1165771484375,-0.13348388671875,-0.64605712890625,100625.171875,26.697315216064453,47138.0
0.47999998927116394,3.6500000953674316,9.079999923706055,-28.375,-14.0625,-46.75,10.75,-0.9375,11.125,0.47999998927116394,3.430000066757202,9.170000076293945,0.7440185546875,0.1185302734375,-0.13653564453125,-0.6431884765625,100625.359375,26.697172164916992,47178.0
0.6000000238418579,3.8399999141693115,9.0600004196167,-27.6875,-14.0625,-45.6875,8.0625,-0.1875,13.125,0.5199999809265137,3.490000009536743,9.140000343322754,0.7464599609375,0.1199951171875,-0.13897705078125,-0.63958740234375,100625.78125,26.696468353271484,47218.0
0.6800000071525574,3.799999952316284,9.029999732971191,-29.5,-13.25,-45.1875,5.25,1.0625,14.8125,0.550000011920929,3.5299999713897705,9.130000114440918,0.74932861328125,0.1212158203125,-0.14111328125,-0.635498046875,100625.953125,26.69711685180664,47258.0
0.6399999856948853,3.7799999713897705,9.109999656677246,-28.375,-13.6875,-46.375,3.5625,2.125,15.0625,0.5799999833106995,3.549999952316284,9.119999885559082,0.75250244140625,0.12200927734375,-0.14227294921875,-0.63134765625,100626.3203125,26.698740005493164,47298.0
0.75,3.7100000381469727,9.109999656677246,-28.375,-13.6875,-46.375,3.25,3.9375,16.375,0.6000000238418579,3.569999933242798,9.109999656677246,0.75604248046875,0.12298583984375,-0.1429443359375,-0.62677001953125,100625.9921875,26.69938850402832,47338.0
0.6399999856948853,3.640000104904175,9.069999694824219,-28.375,-13.6875,-46.0,4.6875,3.625,16.75,0.6200000047683716,3.5899999141693115,9.100000381469727,0.75982666015625,0.12420654296875,-0.1436767578125,-0.62176513671875,100625.8828125,26.70045280456543,47378.0
0.6800000071525574,3.700000047683716,9.039999961853027,-28.375,-12.5625,-46.0,4.8125,3.0,14.75,0.6299999952316284,3.619999885559082,9.09000015258789,0.76287841796875,0.12542724609375,-0.14453125,-0.6175537109375,100625.59375,26.700668334960938,47418.0
0.7099999785423279,3.7100000381469727,9.079999923706055,-28.75,-13.0,-46.0,4.4375,1.75,10.875,0.6499999761581421,3.640000104904175,9.079999923706055,0.76519775390625,0.12646484375,-0.1455078125,-0.6142578125,100625.375,26.70140838623047,47458.0
0.8199999928474426,3.759999990463257,9.100000381469727,-29.5,-13.0,-46.75,3.0,1.9375,8.6875,0.6600000262260437,3.6600000858306885,9.069999694824219,0.76690673828125,0.127197265625,-0.1461181640625,-0.61181640625,100625.4765625,26.703699111938477,47498.0
0.7599999904632568,3.809999942779541,9.149999618530273,-29.5,-13.0,-46.75,0.625,1.6875,6.625,0.6700000166893005,3.6600000858306885,9.0600004196167,0.76824951171875,0.12725830078125,-0.14617919921875,-0.610107421875,100624.9296875,26.70368003845215,47538.0
0.7900000214576721,3.549999952316284,9.09000015258789,-28.75,-13.0,-46.0,-0.8125,0.6875,4.25,0.6800000071525574,3.6600000858306885,9.069999694824219,0.7694091796875,0.12689208984375,-0.14599609375,-0.6087646484375,100624.7578125,26.704238891601562,47578.0
0.8600000143051147,3.380000114440918,9.0600004196167,-29.875,-12.25,-47.1875,0.25,0.0625,1.25,0.6899999976158142,3.6500000953674316,9.069999694824219,0.76983642578125,0.12628173828125,-0.14605712890625,-0.60833740234375,100625.1796875,26.70467185974121,47618.0
0.9300000071525574,3.380000114440918,9.079999923706055,-29.1875,-12.5625,-47.1875,2.4375,0.875,-0.875,0.699999988079071,3.6500000953674316,9.069999694824219,0.76953125,0.12677001953125,-0.146484375,-0.6085205078125,100625.375,26.70557403564453,47658.0
0.7599999904632568,3.630000114440918,9.09000015258789,-28.375,-11.5,-46.375,3.9375,1.4375,-3.3125,0.6899999976158142,3.6600000858306885,9.0600004196167,0.7694091796875,0.12799072265625,-0.14666748046875,-0.6083984375,100625.296875,26.707971572875977,47698.0
0.7300000190734863,3.8299999237060547,9.109999656677246,-28.375,-11.5,-46.375,3.875,1.25,-5.0625,0.6700000166893005,3.690000057220459,9.050000190734863,0.76837158203125,0.12957763671875,-0.1468505859375,-0.60931396484375,100625.3828125,26.709774017333984,47738.0
0.47999998927116394,4.070000171661377,9.039999961853027,-27.6875,-12.25,-46.375,1.0625,1.125,-6.375,0.6399999856948853,3.7200000286102295,9.050000190734863,0.7667236328125,0.13067626953125,-0.1466064453125,-0.6112060546875,100624.9921875,26.709972381591797,47778.0
0.3100000023841858,4.21999979019165,9.0,-28.375,-13.25,-45.5625,-3.9375,-0.875,-8.75,0.6100000143051147,3.7200000286102295,9.050000190734863,0.76446533203125,0.13140869140625,-0.1456298828125,-0.61407470703125,100625.09375,26.70896339416504,47818.0
0.18000000715255737,4.090000152587891,9.069999694824219,-28.75,-13.6875,-46.0,-11.1875,-5.8125,-16.6875,0.5699999928474426,3.7100000381469727,9.050000190734863,0.760498046875,0.12969970703125,-0.14404296875,-0.6197509765625,100625.09375,26.709360122680664,47858.0
0.6399999856948853,3.690000057220459,9.069999694824219,-28.375,-12.5625,-46.375,-14.8125,-8.4375,-21.5,0.5699999928474426,3.640000104904175,9.079999923706055,0.7564697265625,0.12530517578125,-0.14208984375,-0.6259765625,100625.4140625,26.711397171020508,47898.0
0.7099999785423279,3.6600000858306885,9.119999885559082,-28.375,-12.5625,-46.375,-16.3125,-7.0625,-21.8125,0.5600000023841858,3.549999952316284,9.119999885559082,0.75250244140625,0.1207275390625,-0.1395263671875,-0.6322021484375,100624.8515625,26.71291160583496,47938.0
0.7099999785423279,3.390000104904175,9.220000267028809,-27.6875,-13.0,-46.75,-16.125,-5.125,-19.0,0.550000011920929,3.440000057220459,9.15999984741211,0.7489013671875,0.116455078125,-0.1365966796875,-0.63787841796875,100624.78125,26.714624404907227,47978.0
0.8100000023841858,3.390000104904175,9.1899995803833,-28.75,-12.5625,-46.0,-16.0625,-4.1875,-16.5,0.5400000214576721,3.369999885559082,9.1899995803833,0.74505615234375,0.11102294921875,-0.133056640625,-0.64410400390625,100624.8984375,26.714191436767578,48018.0
0.7400000095367432,3.130000114440918,9.199999809265137,-28.375,-13.25,-46.0,-15.75,-2.375,-17.4375,0.5299999713897705,3.2699999809265137,9.220000267028809,0.7423095703125,0.10809326171875,-0.130615234375,-0.64825439453125,100625.0,26.716175079345703,48058.0
0.6899999976158142,3.2699999809265137,9.279999732971191,-28.75,-11.875,-45.5625,-17.75,-4.25,-25.5,0.5099999904632568,3.180000066757202,9.260000228881836,0.73663330078125,0.10369873046875,-0.1270751953125,-0.65606689453125,100624.7578125,26.717077255249023,48098.0
0.6499999761581421,3.0799999237060547,9.3100004196167,-28.75,-11.875,-45.5625,-20.625,-8.0,-44.0,0.47999998927116394,3.069999933242798,9.289999961853027,0.726318359375,0.09844970703125,-0.12310791015625,-0.6690673828125,100623.96875,26.716012954711914,48138.0
0.4300000071525574,2.7300000190734863,9.4399995803833,-28.75,-12.25,-46.375,-23.8125,-17.125,-80.125,0.4300000071525574,2.950000047683716,9.34000015258789,0.70672607421875,0.09197998046875,-0.11944580078125,-0.69122314453125,100623.9921875,26.716968536376953,48178.0
0.9599999785423279,2.440000057220459,9.390000343322754,-28.0,-12.25,-45.1875,-19.75,-25.125,-113.25,0.3799999952316284,2.8399999141693115,9.369999885559082,0.6724853515625,0.08514404296875,-0.116455078125,-0.7259521484375,100623.8359375,26.714786529541016,48218.0
0.9900000095367432,2.5,9.319999694824219,-27.6875,-13.0,-47.5625,-16.6875,-19.625,-116.6875,0.28999999165534973,2.759999990463257,9.399999618530273,0.65106201171875,0.08251953125,-0.11407470703125,-0.745849609375,100624.203125,26.71660804748535,48258.0
0.6800000071525574,2.309999942779541,9.5,-28.375,-15.875,-45.5625,-12.5,-12.875,-103.1875,0.1899999976158142,2.680000066757202,9.420000076293945,0.6248779296875,0.08056640625,-0.1107177734375,-0.76861572265625,100624.125,26.716825485229492,48298.0
-0.27000001072883606,2.9700000286102295,9.420000076293945,-28.375,-15.875,-45.5625,-12.625,-9.625,-88.625,0.09000000357627869,2.619999885559082,9.4399995803833,0.6026611328125,0.07818603515625,-0.10699462890625,-0.78692626953125,100624.3125,26.718717575073242,48338.0
-0.36000001430511475,2.5899999141693115,9.479999542236328,-27.375,-17.25,-46.75,-17.25,-15.6875,-69.625,0.03999999910593033,2.5199999809265137,9.470000267028809,0.584228515625,0.07275390625,-0.10382080078125,-0.8016357421875,100624.09375,26.720142364501953,48378.0
-0.019999999552965164,2.1500000953674316,9.489999771118164,-25.875,-18.75,-45.6875,-16.5,-20.25,-61.875,0.05000000074505806,2.4100000858306885,9.5,0.567138671875,0.066162109375,-0.10198974609375,-0.8145751953125,100624.140625,26.72062873840332,48418.0
0.3400000035762787,2.130000114440918,9.510000228881836,-24.75,-19.875,-47.1875,-11.25,-19.4375,-54.9375,0.09000000357627869,2.319999933242798,9.520000457763672,0.55230712890625,0.06085205078125,-0.10137939453125,-0.8251953125,100624.109375,26.722143173217773,48458.0
0.4000000059604645,2.1700000762939453,9.550000190734863,-25.875,-20.5625,-45.1875,-8.875,-10.9375,-36.125,0.11999999731779099,2.2699999809265137,9.529999732971191,0.54290771484375,0.05743408203125,-0.10009765625,-0.831787109375,100624.046875,26.723297119140625,48498.0
0.25999999046325684,2.0399999618530273,9.550000190734863,-25.875,-20.5625,-45.1875,-7.5625,-5.125,-16.0625,0.12999999523162842,2.2100000381469727,9.550000190734863,0.5394287109375,0.05548095703125,-0.098876953125,-0.8343505859375,100623.859375,26.72183609008789,48538.0
0.28999999165534973,1.840000033378601,9.5600004196167,-24.75,-21.6875,-44.875,-5.875,-0.0625,-3.0625,0.12999999523162842,2.1700000762939453,9.5600004196167,0.53826904296875,0.05401611328125,-0.0970458984375,-0.83538818359375,100624.0078125,26.72248649597168,48578.0
0.5699999928474426,1.8300000429153442,9.539999961853027,-25.1875,-21.5625,-46.375,-1.0,5.875,15.375,0.12999999523162842,2.140000104904175,9.5600004196167,0.5423583984375,0.05377197265625,-0.095703125,-0.83294677734375,100624.71875,26.724109649658203,48618.0
0.5699999928474426,1.5199999809265137,9.489999771118164,-25.1875,-20.5,-45.1875,4.0625,17.5,43.125,0.11999999731779099,2.119999885559082,9.569999694824219,0.5545654296875,0.0556640625,-0.093994140625,-0.82489013671875,100624.7890625,26.724180221557617,48658.0
0.10999999940395355,1.7400000095367432,9.520000457763672,-24.75,-20.5,-46.0,11.0,26.1875,74.8125,0.07999999821186066,2.1600000858306885,9.5600004196167,0.574951171875,0.06195068359375,-0.0933837890625,-0.81048583984375,100624.5859375,26.72423553466797,48698.0
0.10000000149011612,1.7300000190734863,9.430000305175781,-24.75,-20.5,-46.0,17.75,25.5,84.25,0.029999999329447746,2.25,9.539999961853027,0.59814453125,0.06951904296875,-0.09454345703125,-0.792724609375,100624.953125,26.723712921142578,48738.0
-0.5099999904632568,1.590000033378601,9.5,-25.1875,-19.0,-45.6875,22.3125,22.9375,78.875,0.0,2.380000114440918,9.510000228881836,0.6195068359375,0.0775146484375,-0.0972900390625,-0.77508544921875,100624.5390625,26.723297119140625,48778.0
-0.33000001311302185,1.8300000429153442,9.989999771118164,-24.75,-19.0,-46.0,26.0625,13.1875,57.8125,0.009999999776482582,2.5399999618530273,9.470000267028809,0.63482666015625,0.084716796875,-0.1026611328125,-0.7611083984375,100624.125,26.722431182861328,48818.0
-0.3100000023841858,1.909999966621399,9.930000305175781,-25.5,-18.0,-46.375,26.75,10.0625,35.9375,0.009999999776482582,2.7100000381469727,9.420000076293945,0.644287109375,0.09124755859375,-0.10699462890625,-0.751708984375,100624.0390625,26.721187591552734,48858.0
-0.46000000834465027,2.130000114440918,9.3100004196167,-25.5,-18.0,-46.375,27.375,8.125,19.25,0.0,2.859999895095825,9.380000114440918,0.64923095703125,0.09844970703125,-0.11260986328125,-0.7457275390625,100624.6015625,26.722576141357422,48898.0
-0.8600000143051147,3.009999990463257,9.130000114440918,-25.875,-17.1875,-46.375,13.625,1.875,9.3125,0.0,2.9800000190734863,9.34000015258789,0.65142822265625,0.102294921875,-0.11639404296875,-0.74273681640625,100624.734375,26.723604202270508,48938.0
-0.8899999856948853,2.4000000953674316,9.930000305175781,-26.5625,-18.375,-46.75,-1.9375,-13.0,-1.875,0.03999999910593033,3.0,9.329999923706055,0.65087890625,0.0994873046875,-0.1187744140625,-0.7431640625,100625.125,26.72437858581543,48978.0
0.05000000074505806,2.2899999618530273,10.069999694824219,-25.5,-18.375,-46.0,-4.25,-27.4375,-13.75,0.1599999964237213,2.9800000190734863,9.34000015258789,0.6468505859375,0.0926513671875,-0.123046875,-0.74688720703125,100624.59375,26.723224639892578,49018.0
1.0700000524520874,2.259999990463257,9.75,-26.5625,-18.6875,-46.0,-1.0625,-29.0625,-19.25,0.3100000023841858,2.9600000381469727,9.34000015258789,0.64093017578125,0.085693359375,-0.12835693359375,-0.751953125,100624.53125,26.72237777709961,49058.0
1.2999999523162842,2.569999933242798,9.5600004196167,-26.5625,-18.6875,-46.0,2.1875,-16.5625,-16.8125,0.4099999964237213,2.9800000190734863,9.329999923706055,0.6356201171875,0.08221435546875,-0.13232421875,-0.756103515625,100624.1171875,26.721729278564453,49098.0
0.75,3.490000009536743,8.600000381469727,-28.0,-18.6875,-44.5,-0.625,-9.4375,-7.5625,0.46000000834465027,2.990000009536743,9.319999694824219,0.6328125,0.0799560546875,-0.13421630859375,-0.75836181640625,100624.2734375,26.721242904663086,49138.0
0.3499999940395355,3.390000104904175,8.949999809265137,-27.0,-19.375,-44.875,-14.1875,-1.3125,11.5,0.5,2.930000066757202,9.34000015258789,0.63531494140625,0.07635498046875,-0.13189697265625,-0.757080078125,100624.265625,26.71857261657715,49178.0
0.4000000059604645,2.5799999237060547,8.600000381469727,-28.0,-19.375,-43.6875,-9.8125,0.0625,37.5,0.550000011920929,2.8399999141693115,9.359999656677246,0.644287109375,0.07257080078125,-0.12982177734375,-0.75018310546875,100624.1484375,26.71772575378418,49218.0
0.6000000238418579,2.7300000190734863,10.40999984741211,-27.6875,-17.5625,-44.375,-7.5,8.5,51.0625,0.5899999737739563,2.7899999618530273,9.380000114440918,0.65838623046875,0.0711669921875,-0.126953125,-0.738525390625,100623.9453125,26.71649932861328,49258.0
-0.25999999046325684,1.909999966621399,9.470000267028809,-27.6875,-17.5625,-44.375,-3.25,15.1875,56.1875,0.6100000143051147,2.7200000286102295,9.390000343322754,0.67279052734375,0.07232666015625,-0.12493896484375,-0.7255859375,100624.1875,26.716175079345703,49298.0
0.009999999776482582,3.2300000190734863,9.029999732971191,-28.375,-16.5,-45.1875,7.625,13.375,45.5625,0.6200000047683716,2.75,9.390000343322754,0.68499755859375,0.07537841796875,-0.12481689453125,-0.71380615234375,100624.65625,26.71649932861328,49338.0
-0.05000000074505806,3.0899999141693115,8.640000343322754,-29.1875,-14.375,-44.375,-11.5625,14.125,35.5625,0.6000000238418579,2.7100000381469727,9.399999618530273,0.6947021484375,0.07525634765625,-0.12042236328125,-0.70513916015625,100624.125,26.7138671875,49378.0
-0.4699999988079071,2.4000000953674316,9.069999694824219,-28.375,-14.375,-45.1875,-9.3125,15.375,27.8125,0.5600000023841858,2.630000114440918,9.420000076293945,0.7022705078125,0.075439453125,-0.11505126953125,-0.698486328125,100623.9921875,26.710729598999023,49418.0
-0.8100000023841858,2.799999952316284,9.1899995803833,-29.875,-12.1875,-45.1875,-11.0,16.0625,27.25,0.5199999809265137,2.569999933242798,9.4399995803833,0.710205078125,0.07537841796875,-0.10906982421875,-0.69140625,100624.1171875,26.710676193237305,49458.0
-1.1100000143051147,2.2899999618530273,9.600000381469727,-29.875,-12.1875,-45.1875,-15.375,14.5,28.3125,0.4699999988079071,2.4700000286102295,9.470000267028809,0.7178955078125,0.07391357421875,-0.102783203125,-0.6845703125,100623.546875,26.710081100463867,49498.0
-1.2000000476837158,1.6799999475479126,9.789999961853027,-28.75,-11.75,-46.375,-12.875,10.4375,30.5,0.4300000071525574,2.3399999141693115,9.510000228881836,0.72625732421875,0.07220458984375,-0.09771728515625,-0.67657470703125,100623.5390625,26.709035873413086,49538.0
-0.8399999737739563,1.9199999570846558,9.869999885559082,-27.6875,-9.5625,-45.5625,-7.375,8.5625,32.4375,0.41999998688697815,2.2799999713897705,9.520000457763672,0.734130859375,0.07135009765625,-0.09466552734375,-0.6685791015625,100623.953125,26.705951690673828,49578.0
-0.6200000047683716,1.9500000476837158,10.229999542236328,-27.375,-8.5,-45.5625,-6.0,9.5,33.3125,0.4099999964237213,2.2300000190734863,9.539999961853027,0.74249267578125,0.071044921875,-0.09173583984375,-0.65972900390625,100624.046875,26.701913833618164,49618.0
-0.4099999964237213,2.0199999809265137,10.609999656677246,-28.0,-8.0625,-46.75,-1.5,10.4375,31.5625,0.4000000059604645,2.200000047683716,9.539999961853027,0.749755859375,0.07208251953125,-0.08941650390625,-0.65167236328125,100624.4140625,26.698884963989258,49658.0
0.33000001311302185,2.799999952316284,11.539999961853027,-28.0,-8.0625,-46.75,-4.125,17.4375,27.375,0.36000001430511475,2.180000066757202,9.550000190734863,0.75677490234375,0.074462890625,-0.0841064453125,-0.6439208984375,100624.6015625,26.69257354736328,49698.0
-0.6299999952316284,2.940000057220459,11.100000381469727,-27.375,-7.0,-47.5625,-6.5625,26.5,25.1875,0.20000000298023224,2.119999885559082,9.569999694824219,0.76593017578125,0.07763671875,-0.07373046875,-0.6339111328125,100624.6015625,26.687253952026367,49738.0
-1.159999966621399,1.809999942779541,11.380000114440918,-26.5625,-5.1875,-48.5,-12.25,19.9375,18.5,0.09000000357627869,2.0399999618530273,9.59000015258789,0.7703857421875,0.078125,-0.06866455078125,-0.6290283203125,100624.5859375,26.68038558959961,49778.0
-0.15000000596046448,1.4299999475479126,10.449999809265137,-25.25,-5.5,-47.25,0.6875,6.5625,19.0625,0.05999999865889549,2.0199999809265137,9.59000015258789,0.77471923828125,0.08038330078125,-0.0693359375,-0.623291015625,100624.7734375,26.672361373901367,49818.0
0.8899999856948853,2.240000009536743,8.739999771118164,-24.75,-3.375,-48.5,9.875,3.5,22.6875,0.07000000029802322,2.0799999237060547,9.579999923706055,0.77960205078125,0.08258056640625,-0.06982421875,-0.6168212890625,100625.015625,26.66574478149414,49858.0
0.7699999809265137,2.049999952316284,7.590000152587891,-24.75,-3.375,-48.5,1.0625,13.25,20.1875,0.03999999910593033,2.109999895095825,9.569999694824219,0.78485107421875,0.08502197265625,-0.06658935546875,-0.61016845703125,100624.5234375,26.660226821899414,49898.0
-0.009999999776482582,1.8600000143051147,8.399999618530273,-25.25,-3.375,-48.875,-7.4375,17.5,15.375,-0.029999999329447746,2.0799999237060547,9.579999923706055,0.78948974609375,0.0860595703125,-0.06109619140625,-0.6046142578125,100624.265625,26.654926300048828,49938.0
-0.4399999976158142,1.4800000190734863,9.210000038146973,-24.875,-3.0,-48.5,-6.375,7.1875,21.25,-0.07999999821186066,2.0299999713897705,9.59000015258789,0.794189453125,0.0853271484375,-0.05908203125,-0.5987548828125,100623.4296875,26.64978790283203,49978.0
-0.05000000074505806,1.9600000381469727,9.600000381469727,-23.75,-1.875,-48.5,-3.0,-2.25,24.375,-0.05999999865889549,2.009999990463257,9.59000015258789,0.80047607421875,0.08349609375,-0.059814453125,-0.59051513671875,100623.7734375,26.64767837524414,50018.0
0.30000001192092896,2.0199999809265137,9.520000457763672,-24.5,-1.875,-48.875,-4.25,-8.6875,22.3125,0.009999999776482582,1.9900000095367432,9.600000381469727,0.80499267578125,0.0799560546875,-0.06182861328125,-0.58465576171875,100623.8203125,26.643783569335938,50058.0
0.8299999833106995,2.1600000858306885,8.829999923706055,-24.5,-1.875,-48.875,-10.875,-10.5,16.6875,0.10000000149011612,1.9299999475479126,9.609999656677246,0.8099365234375,0.07440185546875,-0.062255859375,-0.57843017578125,100623.4453125,26.639131546020508,50098.0
1.1200000047683716,1.3899999856948853,8.760000228881836,-23.75,-0.0625,-48.5,-23.0625,-2.6875,14.25,0.1599999964237213,1.809999942779541,9.630000114440918,0.81402587890625,0.0677490234375,-0.05828857421875,-0.573974609375,100624.1171875,26.63563346862793,50138.0
0.30000001192092896,0.9100000262260437,8.819999694824219,-25.25,0.25,-47.75,-19.125,8.1875,15.875,0.15000000596046448,1.6699999570846558,9.65999984741211,0.81744384765625,0.06365966796875,-0.0526123046875,-0.570068359375,100624.3359375,26.62898063659668,50178.0
-0.11999999731779099,0.36000001430511475,9.25,-23.375,1.6875,-48.5625,-17.0,8.125,7.125,0.10000000149011612,1.5499999523162842,9.680000305175781,0.82061767578125,0.06103515625,-0.04742431640625,-0.566162109375,100624.203125,26.623985290527344,50218.0
-0.6800000071525574,0.7599999904632568,9.40999984741211,-23.0625,2.75,-48.1875,-7.375,4.5625,-3.5625,0.05999999865889549,1.4800000190734863,9.6899995803833,0.82135009765625,0.0599365234375,-0.04486083984375,-0.56549072265625,100624.3203125,26.619657516479492,50258.0
-0.5899999737739563,0.5199999809265137,10.0,-23.0625,2.75,-48.1875,-2.0,-4.5625,-15.8125,0.05999999865889549,1.4500000476837158,9.6899995803833,0.82073974609375,0.0592041015625,-0.04510498046875,-0.56640625,100625.1171875,26.61931610107422,50298.0
-0.38999998569488525,0.23999999463558197,10.350000381469727,-22.6875,3.5625,-49.0,11.4375,-10.1875,-26.8125,0.09000000357627869,1.4900000095367432,9.6899995803833,0.814208984375,0.061279296875,-0.0506591796875,-0.5750732421875,100625.3984375,26.617891311645508,50338.0
-0.36000001430511475,0.7300000190734863,10.039999961853027,-23.375,2.75,-47.75,21.5,-13.3125,-42.0,0.12999999523162842,1.6100000143051147,9.670000076293945,0.8048095703125,0.0655517578125,-0.0577392578125,-0.5870361328125,100625.0859375,26.613941192626953,50378.0
-0.6499999761581421,1.5299999713897705,9.789999961853027,-23.75,2.0625,-45.75,22.625,-17.3125,-59.1875,0.17000000178813934,1.7699999809265137,9.640000343322754,0.79571533203125,0.06842041015625,-0.06353759765625,-0.598388671875,100625.046875,26.6132755279541,50418.0
-0.4399999976158142,1.6699999570846558,9.899999618530273,-24.5,0.5625,-47.75,18.8125,-25.875,-77.375,0.23000000417232513,1.909999966621399,9.609999656677246,0.7803955078125,0.0701904296875,-0.072021484375,-0.61712646484375,100624.8515625,26.612211227416992,50458.0
0.6600000262260437,3.700000047683716,13.170000076293945,-24.5,0.5625,-47.75,17.0,-28.375,-95.1875,0.30000001192092896,2.0399999618530273,9.579999923706055,0.76043701171875,0.071044921875,-0.0804443359375,-0.6405029296875,100625.09375,26.612571716308594,50498.0
-0.75,3.3499999046325684,9.829999923706055,-25.25,-1.5,-46.1875,8.375,-32.125,-101.5625,0.3199999928474426,2.109999895095825,9.569999694824219,0.7371826171875,0.0689697265625,-0.08673095703125,-0.66650390625,100625.1953125,26.612247467041016,50538.0
0.3400000035762787,3.869999885559082,9.100000381469727,-26.6875,-4.875,-45.875,-11.1875,-37.375,-104.625,0.41999998688697815,2.119999885559082,9.5600004196167,0.71240234375,0.0615234375,-0.09173583984375,-0.69305419921875,100624.6875,26.608551025390625,50578.0
0.6100000143051147,1.350000023841858,8.880000114440918,-26.6875,-5.875,-45.375,-29.1875,-39.875,-116.5,0.5099999904632568,1.9900000095367432,9.579999923706055,0.68609619140625,0.04937744140625,-0.092041015625,-0.719970703125,100624.0625,26.604639053344727,50618.0
1.649999976158142,1.940000057220459,9.369999885559082,-28.5,-8.5,-44.5625,-7.4375,-30.4375,-125.3125,0.5799999833106995,1.940000057220459,9.59000015258789,0.65484619140625,0.04296875,-0.09490966796875,-0.74859619140625,100624.125,26.602834701538086,50658.0
0.1599999964237213,1.9600000381469727,9.6899995803833,-28.5,-8.5,-44.5625,-8.875,-20.75,-108.1875,0.5699999928474426,1.9299999475479126,9.59000015258789,0.62713623046875,0.03948974609375,-0.0958251953125,-0.77197265625,100623.796875,26.599193572998047,50698.0
0.5199999809265137,1.5199999809265137,9.329999923706055,-28.5,-10.0,-42.6875,15.75,-31.5625,-95.125,0.6200000047683716,2.0,9.569999694824219,0.60040283203125,0.03717041015625,-0.1038818359375,-0.79205322265625,100623.5859375,26.595298767089844,50738.0
1.100000023841858,3.369999885559082,8.140000343322754,-27.75,-11.75,-43.0625,18.125,-22.3125,-75.0625,0.6800000071525574,2.1700000762939453,9.529999732971191,0.5809326171875,0.03765869140625,-0.11260986328125,-0.80523681640625,100622.8828125,26.591800689697266,50778.0
0.6200000047683716,3.1700000762939453,8.5600004196167,-28.75,-14.375,-41.875,-9.75,-8.8125,-53.0625,0.6700000166893005,2.2100000381469727,9.520000457763672,0.56500244140625,0.03570556640625,-0.11175537109375,-0.81671142578125,100623.265625,26.590917587280273,50818.0
0.25,1.7200000286102295,9.289999961853027,-28.75,-14.375,-41.875,-8.875,-4.5,-37.125,0.6499999761581421,2.1600000858306885,9.539999961853027,0.55999755859375,0.034912109375,-0.11004638671875,-0.8204345703125,100623.8828125,26.593711853027344,50858.0
0.05000000074505806,1.9900000095367432,9.359999656677246,-27.375,-16.1875,-42.6875,-7.875,1.5625,-30.25,0.6100000143051147,2.119999885559082,9.550000190734863,0.5550537109375,0.03570556640625,-0.10675048828125,-0.82415771484375,100623.8828125,26.593494415283203,50898.0
-0.4099999964237213,1.7100000381469727,9.039999961853027,-27.25,-15.75,-42.25,-6.125,4.4375,-23.5,0.5299999713897705,2.0799999237060547,9.5600004196167,0.5484619140625,0.03656005859375,-0.10394287109375,-0.82891845703125,100623.921875,26.593910217285156,50938.0
-0.28999999165534973,1.5199999809265137,9.989999771118164,-24.6875,-17.1875,-41.0,5.5,-6.5625,-28.375,0.5099999904632568,2.0999999046325684,9.5600004196167,0.5413818359375,0.03692626953125,-0.10552978515625,-0.83331298828125,100624.046875,26.596525192260742,50978.0
0.14000000059604645,2.2300000190734863,9.729999542236328,-25.375,-17.25,-41.375,14.6875,-10.375,-45.625,0.5099999904632568,2.190000057220459,9.539999961853027,0.52874755859375,0.03826904296875,-0.11065673828125,-0.84063720703125,100624.3359375,26.601375579833984,51018.0
0.41999998688697815,2.0799999237060547,10.779999732971191,-25.375,-17.25,-41.375,12.5625,-15.75,-75.0625,0.5,2.299999952316284,9.510000228881836,0.50592041015625,0.0390625,-0.1162109375,-0.85382080078125,100625.296875,26.60790252685547,51058.0
0.6000000238418579,0.9800000190734863,11.069999694824219,-24.6875,-19.0625,-40.5625,38.8125,-21.125,-99.1875,0.4699999988079071,2.4800000190734863,9.470000267028809,0.47802734375,0.04278564453125,-0.12750244140625,-0.86798095703125,100625.1953125,26.61105728149414,51098.0
1.4199999570846558,5.139999866485596,8.59000015258789,-25.375,-20.25,-40.1875,34.5,-14.5,-106.0,0.4000000059604645,2.799999952316284,9.380000114440918,0.445556640625,0.04888916015625,-0.13983154296875,-0.8829345703125,100624.8046875,26.61285972595215,51138.0
0.7799999713897705,3.380000114440918,8.399999618530273,-22.75,-23.875,-37.75,9.6875,-9.25,-108.875,0.25999999046325684,2.9200000762939453,9.350000381469727,0.41217041015625,0.05291748046875,-0.142822265625,-0.8983154296875,100625.2109375,26.617097854614258,51178.0
1.149999976158142,3.0,9.039999961853027,-22.0,-26.0625,-39.0,8.25,-7.125,-103.3125,0.14000000059604645,2.9700000286102295,9.34000015258789,0.38238525390625,0.0577392578125,-0.14471435546875,-0.9107666015625,100625.0078125,26.620271682739258,51218.0
0.9300000071525574,3.9000000953674316,9.220000267028809,-22.0,-26.0625,-39.0,15.375,-0.6875,-92.8125,-0.029999999329447746,3.059999942779541,9.3100004196167,0.35528564453125,0.064208984375,-0.14678955078125,-0.9208984375,100624.421875,26.623804092407227,51258.0
0.699999988079071,3.190000057220459,8.800000190734863,-20.1875,-28.25,-36.5625,10.1875,7.875,-80.375,-0.28999999165534973,3.130000114440918,9.279999732971191,0.33282470703125,0.07208251953125,-0.147216796875,-0.92864990234375,100624.8671875,26.62991714477539,51298.0
0.1599999964237213,3.5199999809265137,8.420000076293945,-18.0,-29.75,-37.75,12.75,19.125,-62.3125,-0.5299999713897705,3.190000057220459,9.25,0.31292724609375,0.08221435546875,-0.14752197265625,-0.93463134765625,100624.1953125,26.633342742919922,51338.0
-0.4300000071525574,4.159999847412109,8.819999694824219,-14.5625,-31.5,-38.0625,5.0625,27.375,-41.375,-0.7900000214576721,3.2200000286102295,9.220000267028809,0.30126953125,0.09344482421875,-0.14532470703125,-0.937744140625,100624.296875,26.63590431213379,51378.0
-1.4700000286102295,3.819999933242798,8.960000038146973,-13.1875,-31.5,-37.6875,-3.375,33.25,-16.5625,-0.9800000190734863,3.2100000381469727,9.210000038146973,0.30218505859375,0.10443115234375,-0.1397705078125,-0.9371337890625,100624.265625,26.638410568237305,51418.0
-1.6799999475479126,2.5399999618530273,9.079999923706055,-13.1875,-31.5,-37.6875,-10.625,24.1875,13.4375,-1.159999966621399,3.1500000953674316,9.210000038146973,0.3104248046875,0.1103515625,-0.13323974609375,-0.9346923828125,100624.09375,26.64203453063965,51458.0
-1.309999942779541,1.0099999904632568,8.65999984741211,-11.0,-31.875,-38.0625,-23.4375,9.3125,10.75,-1.2300000190734863,2.990000009536743,9.25,0.31634521484375,0.110107421875,-0.125244140625,-0.933837890625,100624.0625,26.645893096923828,51498.0
-0.41999998688697815,2.509999990463257,8.90999984741211,-10.0625,-31.0625,-38.75,-6.6875,1.0625,7.0625,-1.2300000190734863,2.950000047683716,9.260000228881836,0.31964111328125,0.11016845703125,-0.12347412109375,-0.9329833984375,100623.9453125,26.647064208984375,51538.0
-1.3300000429153442,3.8499999046325684,9.6899995803833,-11.25,-30.6875,-38.75,-11.0,5.4375,21.1875,-1.2300000190734863,2.9100000858306885,9.279999732971191,0.330322265625,0.109375,-0.1199951171875,-0.9298095703125,100623.9609375,26.647930145263672,51578.0
-0.8199999928474426,2.4800000190734863,10.119999885559082,-10.875,-30.6875,-38.375,-15.0625,-7.25,15.4375,-1.1699999570846558,2.8499999046325684,9.300000190734863,0.33673095703125,0.10552978515625,-0.116943359375,-0.9283447265625,100624.15625,26.652040481567383,51618.0
-1.2000000476837158,3.3499999046325684,9.699999809265137,-10.875,-30.6875,-38.375,-3.5,-7.4375,8.0,-1.1200000047683716,2.809999942779541,9.319999694824219,0.34161376953125,0.1021728515625,-0.11676025390625,-0.92694091796875,100624.8046875,26.652833938598633,51658.0
-0.20999999344348907,2.240000009536743,11.569999694824219,-11.25,-29.6875,-38.375,-20.125,-10.3125,21.4375,-0.9900000095367432,2.740000009536743,9.359999656677246,0.3516845703125,0.09796142578125,-0.11492919921875,-0.92388916015625,100624.921875,26.653987884521484,51698.0
-1.600000023841858,3.680000066757202,10.5600004196167,-12.25,-28.5,-40.375,16.375,-4.125,14.9375,-0.9300000071525574,2.8299999237060547,9.34000015258789,0.35589599609375,0.0970458984375,-0.120849609375,-0.92156982421875,100624.4296875,26.65485382080078,51738.0
-3.0399999618530273,3.740000009536743,9.069999694824219,-12.6875,-28.5,-40.0,31.6875,-16.5625,41.0,-0.8299999833106995,2.9600000381469727,9.3100004196167,0.369873046875,0.0933837890625,-0.1322021484375,-0.91485595703125,100624.1640625,26.656097412109375,51778.0
-2.4100000858306885,5.869999885559082,8.989999771118164,-14.0625,-28.875,-38.75,-13.0,-29.0625,57.3125,-0.5699999928474426,3.0399999618530273,9.300000190734863,0.38934326171875,0.08013916015625,-0.1318359375,-0.9080810546875,100623.75,26.65701675415039,51818.0
-0.7300000190734863,2.180000066757202,9.350000381469727,-14.0625,-28.875,-38.75,-21.375,-18.5,63.875,-0.28999999165534973,2.880000114440918,9.359999656677246,0.41265869140625,0.06982421875,-0.129150390625,-0.89898681640625,100624.484375,26.658279418945312,51858.0
-1.159999966621399,2.2200000286102295,9.65999984741211,-16.6875,-27.0625,-38.375,-12.75,-11.125,56.375,-0.09000000357627869,2.799999952316284,9.390000343322754,0.4334716796875,0.0631103515625,-0.12847900390625,-0.88970947265625,100624.03125,26.6580810546875,51898.0
-1.5700000524520874,3.1500000953674316,8.729999542236328,-18.875,-25.6875,-39.5625,-1.5,-13.5625,53.0625,0.07999999821186066,2.7699999809265137,9.399999618530273,0.44842529296875,0.05572509765625,-0.131103515625,-0.88238525390625,100623.2734375,26.655052185058594,51938.0
-0.8700000047683716,3.2799999713897705,8.25,-20.0,-25.0,-38.0,-9.1875,-28.8125,42.125,0.3100000023841858,2.7300000190734863,9.40999984741211,0.46124267578125,0.04376220703125,-0.133056640625,-0.87615966796875,100623.3046875,26.65449333190918,51978.0
0.75,3.059999942779541,8.359999656677246,-20.6875,-24.25,-38.75,-18.25,-34.5625,19.4375,0.5799999833106995,2.619999885559082,9.430000305175781,0.46624755859375,0.03021240234375,-0.13226318359375,-0.87420654296875,100623.46875,26.655826568603516,52018.0
1.2300000190734863,2.180000066757202,8.649999618530273,-20.6875,-24.25,-38.75,-33.0,-23.9375,-0.5625,0.7699999809265137,2.440000057220459,9.460000038146973,0.467529296875,0.01873779296875,-0.126220703125,-0.87469482421875,100624.3984375,26.660858154296875,52058.0
1.3700000047683716,1.1399999856948853,8.729999542236328,-23.5625,-22.375,-38.0,-31.5625,-18.0,-20.8125,0.8799999952316284,2.240000009536743,9.5,0.46295166015625,0.01031494140625,-0.119873046875,-0.878173828125,100624.6328125,26.66347312927246,52098.0
1.409999966621399,0.8600000143051147,8.989999771118164,-25.0625,-22.0625,-37.25,-19.75,-7.875,-23.375,0.9200000166893005,2.0899999141693115,9.529999732971191,0.45587158203125,0.00616455078125,-0.1153564453125,-0.88250732421875,100624.7734375,26.664283752441406,52138.0
1.3300000429153442,1.2300000190734863,9.489999771118164,-25.75,-21.6875,-38.5,-10.375,-0.625,-20.0625,0.9100000262260437,2.0199999809265137,9.550000190734863,0.45257568359375,0.0057373046875,-0.1124267578125,-0.88458251953125,100624.953125,26.666032791137695,52178.0
0.8600000143051147,1.8200000524520874,9.90999984741211,-23.25,-19.875,-38.5625,-6.125,5.0625,-15.125,0.8700000047683716,1.9800000190734863,9.5600004196167,0.450927734375,0.00726318359375,-0.10968017578125,-0.8857421875,100624.7890625,26.666790008544922,52218.0
0.27000001072883606,2.5199999809265137,9.579999923706055,-23.25,-19.875,-38.5625,-7.25,6.0,-10.3125,0.8100000023841858,1.9500000476837158,9.569999694824219,0.45001220703125,0.00799560546875,-0.10601806640625,-0.88665771484375,100624.8515625,26.667926788330078,52258.0
-0.05999999865889549,2.0899999141693115,10.5,-24.0,-21.0,-38.5625,-24.875,-5.25,-14.875,0.7900000214576721,1.840000033378601,9.59000015258789,0.4471435546875,0.0029296875,-0.0994873046875,-0.888916015625,100624.2578125,26.667619705200195,52298.0
1.75,0.9300000071525574,11.460000038146973,-24.0,-21.0,-39.0,-21.5,-10.875,-22.6875,0.8399999737739563,1.690000057220459,9.619999885559082,0.4403076171875,-0.00177001953125,-0.09503173828125,-0.892822265625,100624.5234375,26.66853904724121,52338.0
1.2999999523162842,1.600000023841858,10.140000343322754,-23.25,-21.375,-39.0,-8.1875,1.375,-16.4375,0.8299999833106995,1.6200000047683716,9.630000114440918,0.4361572265625,-0.0020751953125,-0.09210205078125,-0.8951416015625,100624.234375,26.667510986328125,52378.0
1.0499999523162842,1.6699999570846558,9.229999542236328,-23.25,-21.0,-40.1875,-12.875,1.4375,-6.75,0.8100000023841858,1.559999942779541,9.640000343322754,0.43499755859375,-0.0032958984375,-0.08831787109375,-0.8961181640625,100624.0546875,26.66615867614746,52418.0
1.1699999570846558,1.5299999713897705,9.710000038146973,-23.25,-21.0,-40.1875,-16.0625,-1.3125,-3.8125,0.8100000023841858,1.4700000286102295,9.65999984741211,0.43426513671875,-0.00616455078125,-0.083251953125,-0.89691162109375,100623.828125,26.66686248779297,52458.0
0.9599999785423279,0.33000001311302185,10.1899995803833,-22.5625,-20.5625,-39.375,-15.3125,-1.9375,-5.0625,0.8199999928474426,1.350000023841858,9.670000076293945,0.4329833984375,-0.00872802734375,-0.07958984375,-0.8978271484375,100623.75,26.666248321533203,52498.0
0.8399999737739563,0.20999999344348907,9.510000228881836,-22.5625,-20.25,-39.375,-0.5625,-6.6875,-5.9375,0.8399999737739563,1.3200000524520874,9.680000305175781,0.43109130859375,-0.010498046875,-0.0810546875,-0.89862060546875,100624.859375,26.668088912963867,52538.0
1.2999999523162842,0.9300000071525574,8.489999771118164,-24.0,-19.5,-40.1875,8.9375,-5.8125,-3.5625,0.8799999952316284,1.3700000047683716,9.65999984741211,0.43231201171875,-0.01068115234375,-0.0843505859375,-0.897705078125,100624.6875,26.66832160949707,52578.0
0.9700000286102295,1.1100000143051147,8.220000267028809,-24.0,-19.5,-40.1875,3.5,-5.5,-3.5625,0.9100000262260437,1.399999976158142,9.65999984741211,0.432861328125,-0.01165771484375,-0.08599853515625,-0.89727783203125,100625.71875,26.667926788330078,52618.0
1.1200000047683716,1.2300000190734863,8.109999656677246,-24.0,-19.875,-39.75,-3.3125,-4.0,-2.3125,0.9399999976158142,1.399999976158142,9.649999618530273,0.4332275390625,-0.01361083984375,-0.0853271484375,-0.89715576171875,100625.1953125,26.667041778564453,52658.0
1.1299999952316284,1.059999942779541,8.729999542236328,-23.5625,-20.5625,-39.75,-12.6875,-2.25,11.375,0.9700000286102295,1.340000033378601,9.65999984741211,0.4375,-0.016357421875,-0.0819091796875,-0.89532470703125,100624.5625,26.66522216796875,52698.0
0.7799999713897705,-0.5400000214576721,8.65999984741211,-24.0,-20.25,-40.5625,-1.0625,-6.375,6.5625,1.0099999904632568,1.2699999809265137,9.670000076293945,0.4390869140625,-0.0179443359375,-0.0838623046875,-0.89434814453125,100624.7578125,26.66617774963379,52738.0
1.9299999475479126,1.9600000381469727,9.8100004196167,-24.375,-19.875,-38.5625,15.0,-0.75,-0.3125,1.0399999618530273,1.3700000047683716,9.649999618530273,0.4395751953125,-0.016357421875,-0.08734130859375,-0.893798828125,100624.625,26.665149688720703,52778.0
1.309999942779541,1.649999976158142,9.829999923706055,-24.375,-19.875,-38.5625,-1.0,-0.75,-5.8125,1.0399999618530273,1.3799999952316284,9.649999618530273,0.43817138671875,-0.0177001953125,-0.08636474609375,-0.89453125,100625.125,26.665546417236328,52818.0
2.130000114440918,1.2000000476837158,10.180000305175781,-25.0625,-19.875,-39.75,-12.5625,-2.375,-10.4375,1.0499999523162842,1.3200000524520874,9.649999618530273,0.43609619140625,-0.01947021484375,-0.0828857421875,-0.8958740234375,100625.1171875,26.666410446166992,52858.0
1.809999942779541,1.7000000476837158,13.289999961853027,-23.5625,-19.5,-39.375,-14.3125,7.5625,0.375,1.0199999809265137,1.2400000095367432,9.670000076293945,0.438720703125,-0.01983642578125,-0.07666015625,-0.8951416015625,100625.25,26.665328979492188,52898.0
1.2400000095367432,0.2800000011920929,11.819999694824219,-25.0625,-19.0625,-39.0,-18.9375,2.25,0.9375,0.9900000095367432,1.100000023841858,9.6899995803833,0.43914794921875,-0.0213623046875,-0.0709228515625,-0.8953857421875,100625.8203125,26.66509437561035,52938.0
1.190000057220459,0.5400000214576721,9.770000457763672,-25.0625,-19.5,-39.75,-6.0,8.4375,3.4375,0.9700000286102295,1.0499999523162842,9.699999809265137,0.44207763671875,-0.01800537109375,-0.06829833984375,-0.8941650390625,100625.3828125,26.664337158203125,52978.0
0.18000000715255737,1.4900000095367432,10.0600004196167,-25.0625,-19.5,-39.75,-10.25,16.1875,4.875,0.8799999952316284,1.0199999809265137,9.710000038146973,0.44366455078125,-0.01593017578125,-0.06134033203125,-0.8939208984375,100625.5546875,26.664356231689453,53018.0
0.7200000286102295,0.9399999976158142,10.770000457763672,-24.375,-19.0625,-41.25,-16.0,17.0625,0.4375,0.7599999904632568,0.8799999952316284,9.729999542236328,0.44476318359375,-0.0128173828125,-0.05389404296875,-0.8939208984375,100625.328125,26.66379737854004,53058.0
-0.5899999737739563,-0.029999999329447746,9.5600004196167,-23.25,-18.5,-40.0625,-2.25,18.25,9.375,0.6299999952316284,0.8100000023841858,9.75,0.448974609375,-0.00799560546875,-0.0513916015625,-0.89202880859375,100625.0234375,26.66221046447754,53098.0
-0.5099999904632568,0.8399999737739563,8.569999694824219,-24.0,-18.0625,-42.0625,11.5625,3.0,11.6875,0.5699999928474426,0.8600000143051147,9.75,0.4522705078125,-0.00592041015625,-0.05450439453125,-0.89019775390625,100625.1328125,26.66046142578125,53138.0
0.03999999910593033,1.5700000524520874,7.929999828338623,-23.5625,-17.6875,-40.5625,9.625,-4.625,6.5625,0.5899999737739563,0.9100000262260437,9.739999771118164,0.4542236328125,-0.00701904296875,-0.05694580078125,-0.8890380859375,100625.015625,26.659704208374023,53178.0
0.3499999940395355,1.149999976158142,8.079999923706055,-23.5625,-17.6875,-40.5625,-2.75,-6.4375,-1.25,0.6399999856948853,0.9200000166893005,9.739999771118164,0.4539794921875,-0.0096435546875,-0.05621337890625,-0.88916015625,100624.9296875,26.65972137451172,53218.0
0.10999999940395355,0.05999999865889549,8.739999771118164,-24.0,-18.0625,-42.5,-5.25,-6.75,-7.375,0.6800000071525574,0.8799999952316284,9.739999771118164,0.4512939453125,-0.01177978515625,-0.05712890625,-0.89044189453125,100625.2265625,26.659740447998047,53258.0
-0.12999999523162842,0.6000000238418579,8.779999732971191,-23.25,-18.0625,-41.75,9.875,-8.5,-11.8125,0.7300000190734863,0.9300000071525574,9.729999542236328,0.44781494140625,-0.0123291015625,-0.0626220703125,-0.891845703125,100625.171875,26.65744972229004,53298.0
0.20000000298023224,2.380000114440918,9.510000228881836,-24.0,-18.0625,-42.5,12.375,-10.3125,-14.625,0.7900000214576721,1.0199999809265137,9.720000267028809,0.443359375,-0.01422119140625,-0.06500244140625,-0.89385986328125,100625.171875,26.655719757080078,53338.0
0.3199999928474426,1.3200000524520874,10.25,-24.375,-19.0625,-41.25,-11.625,-6.1875,-12.8125,0.8199999928474426,0.9900000095367432,9.720000267028809,0.44091796875,-0.0167236328125,-0.0626220703125,-0.89520263671875,100625.5546875,26.654998779296875,53378.0
0.5199999809265137,0.5899999737739563,10.640000343322754,-24.375,-19.0625,-41.25,-13.5625,-4.625,-9.5,0.8399999737739563,0.9100000262260437,9.720000267028809,0.43853759765625,-0.019775390625,-0.0599365234375,-0.896484375,100625.625,26.655628204345703,53418.0
1.4299999475479126,1.75,13.609999656677246,-25.0625,-19.5,-40.5625,-1.3125,-7.0625,-9.125,0.8899999856948853,0.8700000047683716,9.720000267028809,0.43524169921875,-0.02239990234375,-0.05938720703125,-0.8980712890625,100625.328125,26.655502319335938,53458.0
1.4700000286102295,0.8199999928474426,10.569999694824219,-24.75,-19.875,-40.5625,-1.5,-1.125,-6.3125,0.8999999761581421,0.8600000143051147,9.720000267028809,0.43353271484375,-0.02154541015625,-0.06072998046875,-0.89886474609375,100625.7890625,26.65427589416504,53498.0
1.059999942779541,1.690000057220459,10.460000038146973,-24.375,-19.875,-41.0,7.9375,-0.875,-5.5,0.8899999856948853,0.8999999761581421,9.720000267028809,0.43170166015625,-0.02276611328125,-0.06243896484375,-0.89959716796875,100626.015625,26.65449333190918,53538.0
2.140000104904175,0.6499999761581421,9.779999732971191,-25.5,-19.875,-41.75,-7.75,-13.5,-5.75,0.949999988079071,0.8899999856948853,9.710000038146973,0.4307861328125,-0.02593994140625,-0.0634765625,-0.89984130859375,100625.9453125,26.653501510620117,53578.0
2.380000114440918,0.27000001072883606,9.989999771118164,-25.5,-19.875,-41.75,4.375,-9.75,-1.9375,1.0199999809265137,0.9100000262260437,9.699999809265137,0.43212890625,-0.02685546875,-0.06744384765625,-0.89886474609375,100626.1328125,26.65506935119629,53618.0
1.8600000143051147,1.2100000381469727,8.75,-26.1875,-19.5,-41.25,27.75,3.0625,1.8125,1.0399999618530273,1.0299999713897705,9.6899995803833,0.43304443359375,-0.0220947265625,-0.07476806640625,-0.89801025390625,100626.171875,26.655683517456055,53658.0
1.1100000143051147,1.7699999809265137,8.029999732971191,-25.5,-20.25,-43.0,22.625,9.0625,-0.3125,0.9900000095367432,1.2000000476837158,9.680000305175781,0.43310546875,-0.016357421875,-0.079833984375,-0.89764404296875,100626.046875,26.6561336517334,53698.0
0.8700000047683716,1.2899999618530273,8.029999732971191,-25.5,-21.25,-41.0,11.3125,7.0625,-6.75,0.9300000071525574,1.2999999523162842,9.670000076293945,0.43060302734375,-0.01171875,-0.0823974609375,-0.898681640625,100625.8125,26.656457901000977,53738.0
0.8700000047683716,1.2699999809265137,8.130000114440918,-25.75,-21.25,-41.75,5.0625,5.9375,-7.6875,0.8899999856948853,1.3600000143051147,9.670000076293945,0.42913818359375,-0.010009765625,-0.08270263671875,-0.89935302734375,100626.234375,26.659019470214844,53778.0
1.0299999713897705,1.3600000143051147,8.029999732971191,-25.75,-21.25,-41.75,-3.25,5.75,-4.3125,0.8500000238418579,1.3700000047683716,9.670000076293945,0.42816162109375,-0.0089111328125,-0.0809326171875,-0.9000244140625,100625.546875,26.660371780395508,53818.0
1.2599999904632568,1.2599999904632568,8.920000076293945,-25.0625,-22.5,-41.0,-3.0625,8.1875,-0.3125,0.8100000023841858,1.340000033378601,9.680000305175781,0.4283447265625,-0.0072021484375,-0.078125,-0.90020751953125,100625.875,26.660226821899414,53858.0
0.7900000214576721,0.3799999952316284,9.600000381469727,-25.0625,-21.6875,-42.0625,-12.5,7.8125,0.375,0.75,1.2699999809265137,9.6899995803833,0.42840576171875,-0.00677490234375,-0.0738525390625,-0.9005126953125,100625.8515625,26.65665626525879,53898.0
1.159999966621399,0.7099999785423279,10.430000305175781,-26.5625,-21.25,-42.875,-6.875,0.4375,-5.25,0.7300000190734863,1.2200000286102295,9.699999809265137,0.4267578125,-0.00726318359375,-0.07171630859375,-0.9014892578125,100625.9609375,26.65570068359375,53938.0
0.9300000071525574,1.4900000095367432,15.199999809265137,-25.75,-21.6875,-44.0625,-4.0,5.6875,-8.125,0.699999988079071,1.190000057220459,9.699999809265137,0.42425537109375,-0.0064697265625,-0.06878662109375,-0.90289306640625,100626.2890625,26.655574798583984,53978.0
-0.07000000029802322,0.09000000357627869,12.15999984741211,-25.75,-21.6875,-44.0625,-9.6875,-3.75,-10.5,0.6800000071525574,1.1200000047683716,9.710000038146973,0.42108154296875,-0.00836181640625,-0.0675048828125,-0.90447998046875,100626.6171875,26.654312133789062,54018.0
0.6399999856948853,0.550000011920929,10.329999923706055,-25.0625,-21.1875,-43.1875,8.6875,-2.0625,-5.375,0.7099999785423279,1.149999976158142,9.710000038146973,0.419921875,-0.0067138671875,-0.0711669921875,-0.90472412109375,100626.8671875,26.65395164489746,54058.0
-0.3400000035762787,2.930000066757202,9.479999542236328,-24.375,-20.1875,-43.5625,11.4375,4.3125,1.375,0.6899999976158142,1.25,9.699999809265137,0.42010498046875,-0.0047607421875,-0.07244873046875,-0.904541015625,100626.3984375,26.65252685546875,54098.0
0.3100000023841858,1.0099999904632568,9.170000076293945,-25.0625,-20.5,-43.1875,-14.4375,3.875,-4.75,0.6600000262260437,1.2000000476837158,9.699999809265137,0.4185791015625,-0.0047607421875,-0.06787109375,-0.9056396484375,100626.4453125,26.652599334716797,54138.0
-0.7599999904632568,0.9900000095367432,9.609999656677246,-23.5625,-20.875,-43.5625,-4.875,10.5625,-7.8125,0.6000000238418579,1.1399999856948853,9.720000267028809,0.4169921875,-0.0028076171875,-0.0657958984375,-0.90655517578125,100626.546875,26.653825759887695,54178.0
-0.5699999928474426,1.8799999952316284,8.670000076293945,-23.5625,-20.875,-43.5625,10.0625,0.4375,-11.25,0.5600000023841858,1.1799999475479126,9.710000038146973,0.418212890625,-0.0006103515625,-0.06793212890625,-0.90582275390625,100626.78125,26.65301513671875,54218.0
-0.23000000417232513,2.509999990463257,8.0,-24.375,-19.0625,-44.375,2.3125,-2.5625,-13.4375,0.5699999928474426,1.2300000190734863,9.710000038146973,0.4140625,-0.00054931640625,-0.06939697265625,-0.9075927734375,100626.484375,26.650671005249023,54258.0
-0.07000000029802322,1.8899999856948853,7.860000133514404,-24.0,-19.5,-44.75,-13.125,-2.5625,-12.875,0.5699999928474426,1.1799999475479126,9.710000038146973,0.41412353515625,-0.0023193359375,-0.06622314453125,-0.90777587890625,100625.984375,26.648902893066406,54298.0
-0.009999999776482582,1.0499999523162842,8.09000015258789,-22.875,-20.25,-44.375,-23.6875,1.1875,-9.75,0.5699999928474426,1.0499999523162842,9.729999542236328,0.41357421875,-0.0048828125,-0.05938720703125,-0.90850830078125,100626.078125,26.648164749145508,54338.0
-0.07999999821186066,0.14000000059604645,8.550000190734863,-22.875,-19.5,-44.375,-17.0625,3.625,-6.375,0.550000011920929,0.9200000166893005,9.739999771118164,0.4144287109375,-0.00616455078125,-0.05328369140625,-0.90850830078125,100626.4296875,26.646451950073242,54378.0
-0.3400000035762787,0.4300000071525574,10.329999923706055,-22.875,-19.5,-44.375,0.5,5.0625,-1.3125,0.5099999904632568,0.8799999952316284,9.75,0.41693115234375,-0.00469970703125,-0.05194091796875,-0.90740966796875,100626.765625,26.646326065063477,54418.0
-0.23999999463558197,1.7699999809265137,10.180000305175781,-22.1875,-18.0625,-45.1875,0.125,6.75,5.1875,0.47999998927116394,0.8899999856948853,9.75,0.41839599609375,-0.002685546875,-0.05133056640625,-0.90679931640625,100627.0,26.64508056640625,54458.0
-0.3400000035762787,1.6299999952316284,11.819999694824219,-21.75,-18.5,-45.25,0.6875,5.75,7.3125,0.4300000071525574,0.8799999952316284,9.75,0.42291259765625,-0.0008544921875,-0.0504150390625,-0.90472412109375,100627.4921875,26.643566131591797,54498.0
-0.25999999046325684,2.380000114440918,12.680000305175781,-22.1875,-18.0625,-45.25,-16.9375,6.1875,8.8125,0.4000000059604645,0.8399999737739563,9.760000228881836,0.42919921875,-0.0009765625,-0.04534912109375,-0.90203857421875,100628.390625,26.644739151000977,54538.0
0.3400000035762787,1.5299999713897705,10.180000305175781,-22.1875,-18.0625,-45.25,-18.375,1.9375,9.375,0.38999998569488525,0.7300000190734863,9.770000457763672,0.4359130859375,-0.00244140625,-0.0413818359375,-0.8990478515625,100627.7265625,26.64502716064453,54578.0
0.8199999928474426,1.840000033378601,9.960000038146973,-22.875,-16.5625,-46.0625,-24.3125,-5.0,6.375,0.4099999964237213,0.6100000143051147,9.770000457763672,0.44097900390625,-0.00701904296875,-0.03546142578125,-0.89678955078125,100627.8984375,26.642953872680664,54618.0
1.3600000143051147,-1.0199999809265137,9.460000038146973,-21.5,-15.875,-47.1875,-22.25,-9.6875,5.6875,0.4699999988079071,0.4099999964237213,9.779999732971191,0.44256591796875,-0.01361083984375,-0.029052734375,-0.89617919921875,100627.625,26.64080810546875,54658.0
1.5700000524520874,-0.8999999761581421,10.15999984741211,-22.5625,-15.0625,-47.25,-0.4375,-3.8125,8.375,0.5099999904632568,0.36000001430511475,9.779999732971191,0.4482421875,-0.01544189453125,-0.02899169921875,-0.893310546875,100627.96875,26.640933990478516,54698.0
1.2400000095367432,-0.20999999344348907,9.239999771118164,-22.5625,-13.25,-47.6875,15.875,-2.5,8.9375,0.5299999713897705,0.4399999976158142,9.779999732971191,0.45452880859375,-0.01348876953125,-0.0343017578125,-0.88995361328125,100628.1484375,26.641042709350586,54738.0
0.949999988079071,0.6800000071525574,8.289999961853027,-22.5625,-13.25,-47.6875,19.1875,0.6875,7.1875,0.5400000214576721,0.5699999928474426,9.770000457763672,0.458984375,-0.01043701171875,-0.03973388671875,-0.88751220703125,100627.90625,26.641691207885742,54778.0
0.8100000023841858,0.6399999856948853,8.010000228881836,-22.5625,-14.0625,-46.5625,11.3125,1.1875,-1.5,0.5299999713897705,0.6600000262260437,9.760000228881836,0.4617919921875,-0.008056640625,-0.0433349609375,-0.88592529296875,100628.34375,26.64275550842285,54818.0
1.0299999713897705,0.25999999046325684,8.149999618530273,-22.1875,-13.6875,-46.875,10.6875,3.4375,-6.4375,0.5099999904632568,0.7300000190734863,9.760000228881836,0.46002197265625,-0.0054931640625,-0.0460205078125,-0.88671875,100627.890625,26.640087127685547,54858.0
0.8100000023841858,0.3400000035762787,7.610000133514404,-22.1875,-14.0625,-46.1875,14.0,6.125,-6.25,0.4699999988079071,0.8100000023841858,9.760000228881836,0.46112060546875,-0.00128173828125,-0.04913330078125,-0.885986328125,100628.125,26.640392303466797,54898.0
0.8500000238418579,0.8500000238418579,8.260000228881836,-21.75,-14.5,-46.1875,15.5625,9.875,-4.25,0.4300000071525574,0.8899999856948853,9.75,0.462890625,0.00433349609375,-0.0517578125,-0.8848876953125,100627.484375,26.63831901550293,54938.0
-0.12999999523162842,0.9100000262260437,9.270000457763672,-21.75,-14.5,-46.1875,4.25,11.0,0.0625,0.3499999940395355,0.949999988079071,9.75,0.4658203125,0.0076904296875,-0.05157470703125,-0.88336181640625,100627.7421875,26.63905906677246,54978.0
0.3799999952316284,0.9399999976158142,10.180000305175781,-21.0625,-14.75,-45.6875,-4.125,-4.375,4.1875,0.3499999940395355,0.949999988079071,9.75,0.46942138671875,0.00634765625,-0.05126953125,-0.8814697265625,100628.0390625,26.640213012695312,55018.0
0.7900000214576721,1.840000033378601,15.029999732971191,-20.6875,-15.1875,-46.5625,-1.3125,-3.875,8.0625,0.3799999952316284,0.9300000071525574,9.75,0.4715576171875,0.0045166015625,-0.0509033203125,-0.88031005859375,100628.25,26.63817596435547,55058.0
-0.23000000417232513,0.23000000417232513,11.0,-21.0625,-14.5625,-46.1875,-14.6875,-9.0625,1.3125,0.4300000071525574,0.8500000238418579,9.75,0.4744873046875,-0.0001220703125,-0.049560546875,-0.87884521484375,100627.8671875,26.635507583618164,55098.0
0.8899999856948853,1.4500000476837158,12.770000457763672,-22.1875,-13.0625,-45.6875,-0.5,-9.6875,-4.875,0.5,0.8500000238418579,9.75,0.4775390625,-0.002197265625,-0.05035400390625,-0.87713623046875,100627.796875,26.634063720703125,55138.0
0.0,0.8199999928474426,11.010000228881836,-22.1875,-13.0625,-45.6875,2.5625,0.25,-3.0625,0.5,0.8399999737739563,9.75,0.47857666015625,-0.00140380859375,-0.0513916015625,-0.87652587890625,100627.9765625,26.636463165283203,55178.0
0.1599999964237213,0.550000011920929,10.479999542236328,-21.0625,-14.1875,-46.5625,11.375,2.4375,-3.8125,0.49000000953674316,0.9200000166893005,9.739999771118164,0.47845458984375,0.00152587890625,-0.05517578125,-0.87640380859375,100627.8046875,26.63593864440918,55218.0
-0.3100000023841858,0.9599999785423279,8.470000267028809,-20.0,-14.1875,-46.1875,28.9375,-2.375,-2.25,0.5,1.100000023841858,9.729999542236328,0.47784423828125,0.005126953125,-0.0645751953125,-0.87603759765625,100627.6796875,26.632675170898438,55258.0
0.5600000023841858,1.9800000190734863,7.46999979019165,-21.0625,-13.75,-44.5625,28.8125,-13.8125,3.5625,0.5799999833106995,1.2899999618530273,9.699999809265137,0.48175048828125,0.0054931640625,-0.074462890625,-0.87310791015625,100627.2734375,26.630224227905273,55298.0
1.1399999856948853,1.9800000190734863,7.400000095367432,-20.6875,-14.875,-44.875,8.8125,-11.4375,12.375,0.6499999761581421,1.3600000143051147,9.680000305175781,0.48760986328125,0.0032958984375,-0.07806396484375,-0.86956787109375,100627.2890625,26.629539489746094,55338.0
0.7599999904632568,1.2200000286102295,8.300000190734863,-20.6875,-14.875,-44.875,-9.375,-2.8125,14.5,0.7099999785423279,1.3300000429153442,9.680000305175781,0.49334716796875,0.000732421875,-0.07550048828125,-0.86651611328125,100627.7578125,26.62728500366211,55378.0
0.28999999165534973,0.4699999988079071,8.489999771118164,-21.5,-16.0,-42.875,-15.625,-0.3125,11.0625,0.7200000286102295,1.2100000381469727,9.699999809265137,0.49951171875,-0.001953125,-0.0712890625,-0.86334228515625,100628.09375,26.625608444213867,55418.0
0.25999999046325684,-0.09000000357627869,8.489999771118164,-21.75,-14.1875,-44.75,-8.5625,-4.0625,7.1875,0.7400000095367432,1.149999976158142,9.699999809265137,0.50140380859375,-0.00439453125,-0.07049560546875,-0.8623046875,100628.1484375,26.62607765197754,55458.0
0.7400000095367432,1.690000057220459,10.350000381469727,-20.6875,-13.75,-44.5,7.375,-4.4375,4.1875,0.7799999713897705,1.1699999570846558,9.699999809265137,0.5045166015625,-0.0047607421875,-0.07269287109375,-0.8603515625,100628.265625,26.62526512145996,55498.0
0.7699999809265137,1.659999966621399,10.380000114440918,-21.5,-13.375,-44.5,0.0625,-1.8125,4.1875,0.800000011920929,1.1699999570846558,9.699999809265137,0.5078125,-0.00494384765625,-0.0726318359375,-0.8583984375,100627.8125,26.625823974609375,55538.0
1.2799999713897705,2.109999895095825,14.420000076293945,-21.5,-13.375,-44.5,-9.4375,5.375,9.0625,0.7900000214576721,1.1399999856948853,9.699999809265137,0.51275634765625,-0.00494384765625,-0.0679931640625,-0.8558349609375,100627.9609375,26.62796974182129,55578.0
-0.14000000059604645,-0.8600000143051147,11.510000228881836,-21.5,-13.375,-44.0625,-22.25,7.5,13.0,0.7300000190734863,1.0099999904632568,9.720000267028809,0.517822265625,-0.0067138671875,-0.063232421875,-0.85308837890625,100628.03125,26.62553596496582,55618.0
1.649999976158142,1.1699999570846558,9.6899995803833,-20.6875,-13.0625,-44.5,17.375,-15.5625,10.3125,0.800000011920929,1.0299999713897705,9.710000038146973,0.52032470703125,-0.00872802734375,-0.0712890625,-0.8509521484375,100627.9453125,26.621984481811523,55658.0
3.369999885559082,2.950000047683716,9.449999809265137,-21.5,-11.875,-44.0625,11.75,-16.25,7.4375,0.9300000071525574,1.1299999952316284,9.6899995803833,0.52423095703125,-0.01153564453125,-0.07476806640625,-0.84820556640625,100627.8125,26.618162155151367,55698.0
3.0999999046325684,0.9300000071525574,9.399999618530273,-20.6875,-12.25,-43.25,-19.125,9.25,11.5625,0.9399999976158142,1.059999942779541,9.699999809265137,0.52899169921875,-0.0120849609375,-0.067626953125,-0.8458251953125,100627.640625,26.61702537536621,55738.0
1.100000023841858,-0.10999999940395355,9.729999542236328,-20.6875,-12.25,-43.25,-10.1875,20.875,21.375,0.8299999833106995,0.949999988079071,9.720000267028809,0.537841796875,-0.00823974609375,-0.061767578125,-0.8406982421875,100627.7265625,26.61502456665039,55778.0
0.8199999928474426,0.1599999964237213,8.479999542236328,-21.1875,-11.0625,-44.375,4.1875,14.25,24.5,0.7400000095367432,0.9300000071525574,9.729999542236328,0.5458984375,-0.003662109375,-0.060546875,-0.83563232421875,100627.765625,26.61237335205078,55818.0
0.8199999928474426,0.49000000953674316,8.260000228881836,-20.5,-11.0625,-44.375,12.0625,14.25,21.125,0.6600000262260437,0.9800000190734863,9.729999542236328,0.552001953125,0.002197265625,-0.06146240234375,-0.83154296875,100627.8984375,26.61037254333496,55858.0
0.4699999988079071,1.190000057220459,7.960000038146973,-19.0,-10.375,-43.5625,12.5,12.0,17.25,0.5899999737739563,1.059999942779541,9.729999542236328,0.55755615234375,0.00726318359375,-0.0625,-0.8277587890625,100627.53125,26.608299255371094,55898.0
0.4000000059604645,1.309999942779541,7.880000114440918,-19.375,-11.875,-44.75,0.625,7.375,14.5625,0.5400000214576721,1.090000033378601,9.720000267028809,0.56072998046875,0.0086669921875,-0.06170654296875,-0.82568359375,100627.71875,26.60905647277832,55938.0
0.6000000238418579,0.5199999809265137,7.570000171661377,-19.375,-11.875,-44.75,-4.5625,0.75,12.75,0.5299999713897705,1.059999942779541,9.729999542236328,0.56549072265625,0.00811767578125,-0.06024169921875,-0.822509765625,100627.4765625,26.60615348815918,55978.0
1.2300000190734863,1.159999966621399,9.369999885559082,-18.5625,-10.375,-44.375,0.1875,-0.4375,9.5,0.5400000214576721,1.0499999523162842,9.729999542236328,0.5682373046875,0.00762939453125,-0.0601806640625,-0.82061767578125,100627.546875,26.60514259338379,56018.0
0.9200000166893005,1.1100000143051147,9.859999656677246,-18.25,-10.375,-44.0625,-9.0625,-5.375,4.25,0.5600000023841858,1.0099999904632568,9.729999542236328,0.56988525390625,0.00494384765625,-0.0587158203125,-0.819580078125,100627.984375,26.604944229125977,56058.0
1.3899999856948853,2.0899999141693115,15.029999732971191,-18.1875,-10.0,-44.5,-13.375,-9.1875,-1.625,0.6200000047683716,0.9399999976158142,9.739999771118164,0.57000732421875,0.0,-0.05657958984375,-0.8197021484375,100628.0390625,26.60366439819336,56098.0
0.5199999809265137,-0.3199999928474426,11.869999885559082,-19.0,-9.25,-44.5,-24.9375,-14.5,-3.375,0.6800000071525574,0.7599999904632568,9.75,0.57012939453125,-0.0078125,-0.052001953125,-0.81988525390625,100627.828125,26.602113723754883,56138.0
1.0700000524520874,1.5399999618530273,11.479999542236328,-19.0,-9.25,-44.5,7.75,4.4375,6.4375,0.7200000286102295,0.75,9.75,0.572021484375,-0.00701904296875,-0.05328369140625,-0.8184814453125,100628.1015625,26.60095977783203,56178.0
-0.8199999928474426,2.2699999809265137,10.75,-17.875,-8.1875,-43.6875,4.0625,8.4375,7.3125,0.6499999761581421,0.8100000023841858,9.75,0.5743408203125,-0.00335693359375,-0.05316162109375,-0.81683349609375,100627.453125,26.597190856933594,56218.0
0.10000000149011612,1.2799999713897705,10.609999656677246,-17.5625,-9.6875,-44.75,3.125,-3.1875,-0.9375,0.6600000262260437,0.8199999928474426,9.739999771118164,0.5736083984375,-0.0035400390625,-0.05426025390625,-0.81732177734375,100628.0390625,26.597841262817383,56258.0
-0.07999999821186066,1.1200000047683716,9.369999885559082,-16.375,-8.1875,-44.0625,9.875,-8.375,-3.0,0.6899999976158142,0.8700000047683716,9.739999771118164,0.5728759765625,-0.003662109375,-0.05816650390625,-0.81756591796875,100628.125,26.596019744873047,56298.0
0.7099999785423279,1.2100000381469727,8.180000305175781,-18.1875,-8.875,-43.25,12.0625,-11.8125,-5.375,0.7599999904632568,0.949999988079071,9.720000267028809,0.5714111328125,-0.00439453125,-0.0638427734375,-0.81817626953125,100628.2890625,26.595802307128906,56338.0
1.059999942779541,1.0,7.840000152587891,-18.1875,-8.875,-43.25,10.625,-9.0625,-18.5,0.8199999928474426,1.0299999713897705,9.710000038146973,0.56683349609375,-0.00457763671875,-0.06866455078125,-0.82098388671875,100627.921875,26.594486236572266,56378.0
1.0399999618530273,1.0199999809265137,7.730000019073486,-17.875,-9.1875,-44.5,9.9375,0.125,-28.625,0.8299999833106995,1.1100000143051147,9.699999809265137,0.55914306640625,-0.0023193359375,-0.0718994140625,-0.825927734375,100627.7109375,26.59234046936035,56418.0
0.3799999952316284,1.4600000381469727,7.630000114440918,-17.875,-9.5625,-44.5,4.4375,6.0625,-27.3125,0.7799999713897705,1.1799999475479126,9.699999809265137,0.5518798828125,0.0009765625,-0.07232666015625,-0.83074951171875,100627.640625,26.590160369873047,56458.0
-0.10999999940395355,1.1299999952316284,8.3100004196167,-18.1875,-9.5625,-43.5,1.625,5.0,-20.625,0.7200000286102295,1.2000000476837158,9.699999809265137,0.547607421875,0.00335693359375,-0.07171630859375,-0.83367919921875,100628.328125,26.590845108032227,56498.0
0.09000000357627869,1.840000033378601,9.630000114440918,-18.1875,-9.5625,-43.5,-0.25,2.4375,-14.9375,0.6899999976158142,1.2100000381469727,9.699999809265137,0.54632568359375,0.00445556640625,-0.07061767578125,-0.8345947265625,100628.28125,26.590194702148438,56538.0
0.09000000357627869,1.350000023841858,10.4399995803833,-17.5625,-9.1875,-44.375,-7.6875,7.4375,0.0,0.6499999761581421,1.159999966621399,9.710000038146973,0.547607421875,0.005126953125,-0.06719970703125,-0.833984375,100628.828125,26.592594146728516,56578.0
0.07000000029802322,1.3200000524520874,10.649999618530273,-16.375,-9.875,-45.0625,-5.5,6.125,11.5625,0.6000000238418579,1.1200000047683716,9.720000267028809,0.5506591796875,0.00567626953125,-0.064453125,-0.83221435546875,100629.0078125,26.591493606567383,56618.0
1.1799999475479126,2.4200000762939453,13.5,-15.6875,-10.6875,-44.6875,-7.1875,11.4375,25.1875,0.5699999928474426,1.090000033378601,9.720000267028809,0.557373046875,0.00665283203125,-0.061279296875,-0.82794189453125,100628.78125,26.590682983398438,56658.0
0.07999999821186066,1.090000033378601,11.859999656677246,-15.6875,-9.25,-44.6875,-5.125,-0.9375,29.75,0.5600000023841858,1.0299999713897705,9.729999542236328,0.56658935546875,0.00421142578125,-0.06036376953125,-0.82177734375,100628.90625,26.590068817138672,56698.0
2.140000104904175,1.7599999904632568,10.100000381469727,-15.6875,-9.25,-44.6875,-4.25,-18.125,18.6875,0.6899999976158142,0.9900000095367432,9.729999542236328,0.571044921875,-0.001708984375,-0.06158447265625,-0.818603515625,100628.6640625,26.590194702148438,56738.0
2.509999990463257,0.6700000166893005,9.600000381469727,-15.0,-9.25,-44.0,-21.875,-2.5625,6.75,0.7400000095367432,0.8500000238418579,9.739999771118164,0.57440185546875,-0.00689697265625,-0.056396484375,-0.81658935546875,100628.5546875,26.591440200805664,56778.0
1.6699999570846558,-0.1899999976158142,9.710000038146973,-15.6875,-7.75,-44.0,-18.4375,5.3125,8.6875,0.7200000286102295,0.7200000286102295,9.75,0.5767822265625,-0.00933837890625,-0.050537109375,-0.8153076171875,100628.46875,26.591205596923828,56818.0
1.2899999618530273,0.0,9.140000343322754,-15.0,-6.75,-44.6875,2.625,3.0,12.0625,0.699999988079071,0.6899999976158142,9.75,0.58123779296875,-0.00848388671875,-0.04986572265625,-0.8121337890625,100628.5234375,26.589889526367188,56858.0
1.1200000047683716,0.6499999761581421,8.5600004196167,-15.375,-5.25,-44.375,15.375,6.375,12.75,0.6800000071525574,0.7300000190734863,9.75,0.587158203125,-0.00384521484375,-0.052734375,-0.8077392578125,100628.1484375,26.588319778442383,56898.0
0.8899999856948853,1.5399999618530273,7.829999923706055,-15.375,-5.25,-44.375,16.5625,6.0625,12.875,0.6499999761581421,0.8399999737739563,9.739999771118164,0.592041015625,0.00048828125,-0.055419921875,-0.80401611328125,100628.1015625,26.588878631591797,56938.0
0.9200000166893005,1.7999999523162842,7.75,-15.0,-6.0,-44.0625,-1.4375,2.5,10.0,0.6200000047683716,0.8600000143051147,9.739999771118164,0.59552001953125,0.000244140625,-0.05389404296875,-0.801513671875,100628.375,26.58987045288086,56978.0
1.2799999713897705,0.7099999785423279,8.010000228881836,-14.5625,-6.75,-44.75,-11.5,4.375,6.0625,0.6000000238418579,0.7900000214576721,9.75,0.59710693359375,-0.0009765625,-0.0496826171875,-0.80059814453125,100628.5,26.588302612304688,57018.0
0.8399999737739563,0.8999999761581421,9.619999885559082,-15.0,-5.1875,-44.0625,-19.3125,7.0,2.625,0.5600000023841858,0.6700000166893005,9.760000228881836,0.60028076171875,-0.00341796875,-0.0426025390625,-0.79864501953125,100628.9453125,26.587129592895508,57058.0
0.9300000071525574,-0.4099999964237213,9.930000305175781,-13.875,-4.5,-43.5625,-25.1875,2.4375,0.625,0.5400000214576721,0.5400000214576721,9.770000457763672,0.6026611328125,-0.007568359375,-0.03607177734375,-0.797119140625,100628.9296875,26.586841583251953,57098.0
1.4199999570846558,-0.09000000357627869,10.739999771118164,-13.875,-4.5,-43.5625,-18.0625,-2.4375,1.3125,0.550000011920929,0.4099999964237213,9.779999732971191,0.60687255859375,-0.01153564453125,-0.03179931640625,-0.7940673828125,100629.296875,26.58718490600586,57138.0
1.350000023841858,-0.9599999785423279,13.600000381469727,-14.6875,-2.25,-45.5625,-25.0625,2.875,1.9375,0.5400000214576721,0.23000000417232513,9.779999732971191,0.6097412109375,-0.015625,-0.0245361328125,-0.79205322265625,100629.625,26.585723876953125,57178.0
1.5,-1.350000023841858,12.380000114440918,-13.6875,-2.75,-44.75,5.6875,7.875,5.4375,0.5,0.2199999988079071,9.789999961853027,0.61407470703125,-0.0079345703125,-0.02618408203125,-0.78875732421875,100629.0625,26.581161499023438,57218.0
-0.20000000298023224,0.6700000166893005,8.970000267028809,-12.875,-1.5625,-44.75,37.625,24.875,9.375,0.38999998569488525,0.3700000047683716,9.789999961853027,0.6160888671875,0.0057373046875,-0.0311279296875,-0.78704833984375,100629.1640625,26.5794677734375,57258.0
-0.8700000047683716,3.559999942779541,8.850000381469727,-11.5,-2.375,-44.875,9.4375,13.3125,-1.75,0.25999999046325684,0.5600000023841858,9.779999732971191,0.61651611328125,0.0069580078125,-0.0284423828125,-0.78680419921875,100629.3203125,26.578187942504883,57298.0
0.029999999329447746,-0.36000001430511475,9.369999885559082,-11.5,-2.375,-44.875,-18.5,6.875,-15.625,0.20999999344348907,0.46000000834465027,9.789999961853027,0.61505126953125,0.0057373046875,-0.0223388671875,-0.78814697265625,100628.9921875,26.57840347290039,57338.0
-0.5899999737739563,-0.49000000953674316,9.699999809265137,-11.75,-2.75,-46.0625,0.75,9.625,-13.25,0.14000000059604645,0.4000000059604645,9.789999961853027,0.61480712890625,0.0089111328125,-0.02130126953125,-0.788330078125,100628.96875,26.578548431396484,57378.0
-0.8899999856948853,1.0199999809265137,8.989999771118164,-10.6875,-1.5625,-44.875,15.6875,0.6875,-6.0,0.10999999940395355,0.47999998927116394,9.789999961853027,0.61517333984375,0.01141357421875,-0.02642822265625,-0.78790283203125,100628.53125,26.581541061401367,57418.0
0.1899999976158142,1.2200000286102295,8.510000228881836,-10.6875,-2.375,-45.6875,6.5625,-11.0625,-4.6875,0.1599999964237213,0.550000011920929,9.779999732971191,0.614013671875,0.010009765625,-0.02899169921875,-0.7886962890625,100628.8125,26.585525512695312,57458.0
0.7200000286102295,0.6000000238418579,8.5600004196167,-9.5625,-2.375,-45.0,-3.5625,-6.6875,-6.875,0.20999999344348907,0.5600000023841858,9.779999732971191,0.6146240234375,0.008056640625,-0.0291748046875,-0.78826904296875,100629.421875,26.587364196777344,57498.0
0.28999999165534973,0.5199999809265137,8.569999694824219,-9.5625,-2.375,-45.0,-0.25,4.6875,-7.4375,0.20999999344348907,0.5400000214576721,9.779999732971191,0.61602783203125,0.00946044921875,-0.02777099609375,-0.78717041015625,100628.9375,26.588157653808594,57538.0
-0.17000000178813934,0.10000000149011612,8.800000190734863,-9.25,-1.5625,-44.6875,1.5625,9.8125,-5.3125,0.15000000596046448,0.5400000214576721,9.789999961853027,0.61761474609375,0.01287841796875,-0.0262451171875,-0.78594970703125,100628.5703125,26.586444854736328,57578.0
-0.7099999785423279,0.699999988079071,9.789999961853027,-9.25,-2.0,-45.0,7.4375,10.75,0.875,0.07999999821186066,0.5799999833106995,9.779999732971191,0.61810302734375,0.01690673828125,-0.02557373046875,-0.7855224609375,100628.3359375,26.582857131958008,57618.0
-0.7099999785423279,0.11999999731779099,10.3100004196167,-8.5,-2.0,-44.25,4.5625,10.375,4.0,0.009999999776482582,0.6100000143051147,9.779999732971191,0.62176513671875,0.0208740234375,-0.02471923828125,-0.78253173828125,100628.65625,26.580747604370117,57658.0
-1.1699999570846558,0.47999998927116394,10.4399995803833,-8.875,-2.375,-45.375,10.9375,10.75,2.1875,-0.05000000074505806,0.6600000262260437,9.779999732971191,0.624755859375,0.02581787109375,-0.02569580078125,-0.77996826171875,100629.3203125,26.58089256286621,57698.0
-0.4300000071525574,1.7300000190734863,12.859999656677246,-8.875,-2.375,-45.375,11.25,-0.125,-1.75,-0.07999999821186066,0.7400000095367432,9.770000457763672,0.62713623046875,0.0277099609375,-0.027587890625,-0.7779541015625,100629.078125,26.579269409179688,57738.0
-0.699999988079071,0.6899999976158142,12.289999961853027,-7.0625,-2.0,-43.5,-9.5,3.8125,7.25,-0.09000000357627869,0.7300000190734863,9.770000457763672,0.628662109375,0.02703857421875,-0.02569580078125,-0.77679443359375,100629.7421875,26.57977294921875,57778.0
-0.4099999964237213,0.8899999856948853,10.359999656677246,-7.0625,-3.0625,-44.75,-7.75,-7.625,15.5625,-0.05999999865889549,0.6800000071525574,9.779999732971191,0.6358642578125,0.021728515625,-0.02545166015625,-0.77105712890625,100629.4375,26.577266693115234,57818.0
1.0299999713897705,1.690000057220459,10.050000190734863,-7.375,-1.5625,-44.375,-22.5625,-18.6875,19.0625,0.05000000074505806,0.5899999737739563,9.779999732971191,0.6444091796875,0.0115966796875,-0.02294921875,-0.7642822265625,100629.3125,26.57481575012207,57858.0
1.4500000476837158,0.4399999976158142,9.140000343322754,-6.6875,-0.5625,-44.375,-30.625,-13.0625,24.9375,0.1599999964237213,0.3799999952316284,9.789999961853027,0.65289306640625,0.00390625,-0.01898193359375,-0.7572021484375,100628.9609375,26.57413101196289,57898.0
0.27000001072883606,-1.9600000381469727,10.09000015258789,-6.6875,-0.5625,-44.375,-26.9375,-10.5625,25.6875,0.23000000417232513,0.17000000178813934,9.800000190734863,0.66229248046875,-0.00506591796875,-0.0142822265625,-0.74908447265625,100628.921875,26.572471618652344,57938.0
1.850000023841858,-1.5800000429153442,9.270000457763672,-6.25,0.1875,-43.875,20.3125,-23.4375,7.8125,0.3700000047683716,0.18000000715255737,9.789999961853027,0.66497802734375,-0.007568359375,-0.02252197265625,-0.74652099609375,100628.6171875,26.5700740814209,57978.0
1.590000033378601,0.6899999976158142,8.069999694824219,-6.25,1.25,-43.5625,34.375,-0.5625,-1.625,0.4300000071525574,0.4000000059604645,9.779999732971191,0.66748046875,-0.00079345703125,-0.031982421875,-0.74395751953125,100628.765625,26.57057762145996,58018.0
1.1799999475479126,0.6700000166893005,8.279999732971191,-7.0625,1.5625,-42.375,23.1875,2.8125,-0.75,0.4099999964237213,0.5799999833106995,9.779999732971191,0.6708984375,0.00567626953125,-0.03741455078125,-0.74053955078125,100629.1953125,26.571533203125,58058.0
1.0299999713897705,0.7900000214576721,8.09000015258789,-6.6875,0.1875,-43.5,20.125,4.5,4.6875,0.4099999964237213,0.7200000286102295,9.770000457763672,0.67193603515625,0.01068115234375,-0.0426025390625,-0.73931884765625,100629.234375,26.570505142211914,58098.0
0.9700000286102295,1.309999942779541,8.420000076293945,-6.6875,0.1875,-43.5,7.375,5.5,9.75,0.3799999952316284,0.8100000023841858,9.760000228881836,0.67425537109375,0.0140380859375,-0.04376220703125,-0.737060546875,100629.4921875,26.57032585144043,58138.0
0.6499999761581421,1.0099999904632568,8.039999961853027,-5.25,-1.0,-43.0625,-4.375,2.4375,10.25,0.36000001430511475,0.800000011920929,9.760000228881836,0.6768798828125,0.013916015625,-0.0423583984375,-0.7347412109375,100628.9296875,26.567873001098633,58178.0
0.6000000238418579,1.0399999618530273,9.579999923706055,-5.25,-1.5,-42.25,-18.0625,-3.25,5.5,0.36000001430511475,0.7200000286102295,9.770000457763672,0.678466796875,0.0096435546875,-0.0389404296875,-0.73358154296875,100628.7265625,26.56720542907715,58218.0
1.0700000524520874,0.20999999344348907,9.970000267028809,-5.25,0.25,-41.875,-21.625,-15.875,-6.4375,0.4399999976158142,0.5799999833106995,9.770000457763672,0.6763916015625,-0.0010986328125,-0.036376953125,-0.73565673828125,100629.03125,26.566682815551758,58258.0
1.9800000190734863,-0.3199999928474426,10.0600004196167,-5.25,0.25,-41.875,-19.375,-11.9375,-10.1875,0.5400000214576721,0.4399999976158142,9.779999732971191,0.67828369140625,-0.0062255859375,-0.034912109375,-0.73394775390625,100629.46875,26.568613052368164,58298.0
1.4900000095367432,0.5799999833106995,13.5600004196167,-6.0625,0.5625,-41.5,-15.75,-1.1875,-8.9375,0.5600000023841858,0.3499999940395355,9.779999732971191,0.6759033203125,-0.0103759765625,-0.03179931640625,-0.7362060546875,100629.640625,26.567171096801758,58338.0
0.6299999952316284,-0.46000000834465027,12.479999542236328,-5.25,0.5625,-41.5,-3.875,-8.6875,-15.875,0.6000000238418579,0.2800000011920929,9.779999732971191,0.672119140625,-0.013671875,-0.03179931640625,-0.7396240234375,100629.9375,26.56608772277832,58378.0
1.5199999809265137,0.7900000214576721,11.3100004196167,-6.75,1.0,-41.375,0.3125,5.75,-10.125,0.6100000143051147,0.28999999165534973,9.779999732971191,0.6693115234375,-0.01287841796875,-0.0311279296875,-0.7421875,100629.4921875,26.562969207763672,58418.0
0.23000000417232513,-0.3799999952316284,10.40999984741211,-4.5625,1.0,-42.1875,-5.4375,22.1875,-4.0,0.47999998927116394,0.25999999046325684,9.789999961853027,0.66864013671875,-0.0078125,-0.0252685546875,-0.7431640625,100629.34375,26.56064224243164,58458.0
-0.8899999856948853,-0.9200000166893005,10.220000267028809,-4.5625,1.0,-42.1875,11.75,24.8125,-0.3125,0.3199999928474426,0.3199999928474426,9.789999961853027,0.66876220703125,0.0018310546875,-0.0242919921875,-0.7430419921875,100629.578125,26.56060791015625,58498.0
-1.2400000095367432,0.7799999713897705,8.890000343322754,-3.0625,1.375,-41.0,38.75,7.25,2.5625,0.23000000417232513,0.5600000023841858,9.779999732971191,0.66937255859375,0.01263427734375,-0.0316162109375,-0.7421875,100629.4375,26.55828094482422,58538.0
-0.550000011920929,1.340000033378601,8.279999732971191,-3.875,0.25,-40.5625,28.5,-5.125,0.5,0.23999999463558197,0.7799999713897705,9.770000457763672,0.6693115234375,0.01837158203125,-0.03985595703125,-0.74169921875,100628.8203125,26.554243087768555,58578.0
0.20000000298023224,1.059999942779541,8.34000015258789,-2.75,-1.1875,-40.5625,14.1875,-6.125,-8.4375,0.2800000011920929,0.8999999761581421,9.760000228881836,0.66729736328125,0.02044677734375,-0.045166015625,-0.7431640625,100628.90625,26.55292510986328,58618.0
0.17000000178813934,1.2000000476837158,8.460000038146973,-2.375,-1.1875,-40.5625,9.75,-2.3125,-19.3125,0.28999999165534973,0.9599999785423279,9.75,0.6619873046875,0.02239990234375,-0.047607421875,-0.74761962890625,100628.921875,26.551374435424805,58658.0
-0.11999999731779099,1.1699999570846558,8.6899995803833,-2.375,-1.1875,-40.5625,-0.8125,1.5625,-27.125,0.25999999046325684,1.0,9.75,0.65509033203125,0.02386474609375,-0.0467529296875,-0.75372314453125,100628.984375,26.55193328857422,58698.0
0.36000001430511475,0.8399999737739563,8.5,-1.6875,-3.375,-40.1875,-2.0625,2.0,-25.9375,0.23000000417232513,0.9800000190734863,9.75,0.64837646484375,0.0240478515625,-0.0455322265625,-0.75958251953125,100628.9921875,26.552349090576172,58738.0
0.23999999463558197,1.690000057220459,9.09000015258789,-1.25,-2.6875,-38.6875,-11.8125,9.6875,-22.3125,0.17000000178813934,0.9399999976158142,9.75,0.6427001953125,0.02447509765625,-0.04095458984375,-0.7646484375,100629.34375,26.549789428710938,58778.0
-0.38999998569488525,0.7799999713897705,10.1899995803833,-1.6875,-3.75,-40.25,-19.5,15.625,-17.6875,0.05999999865889549,0.8199999928474426,9.770000457763672,0.638671875,0.02459716796875,-0.0322265625,-0.7684326171875,100629.28125,26.547283172607422,58818.0
-1.3600000143051147,-0.6200000047683716,10.319999694824219,-0.25,-2.75,-39.0625,-18.5625,14.625,-11.3125,-0.019999999552965164,0.7200000286102295,9.770000457763672,0.6361083984375,0.0247802734375,-0.02581787109375,-0.770751953125,100628.6328125,26.544252395629883,58858.0
-0.07999999821186066,0.8399999737739563,13.9399995803833,-0.25,-2.75,-39.0625,6.0625,-0.4375,-6.75,-0.05000000074505806,0.7099999785423279,9.779999732971191,0.6346435546875,0.0260009765625,-0.02679443359375,-0.77191162109375,100628.8515625,26.545442581176758,58898.0
-0.1599999964237213,0.75,12.039999961853027,0.875,-2.375,-38.75,11.3125,3.8125,3.4375,-0.07000000029802322,0.7799999713897705,9.770000457763672,0.63580322265625,0.02911376953125,-0.0291748046875,-0.770751953125,100629.1875,26.54632568359375,58938.0
-0.23000000417232513,0.7099999785423279,10.5600004196167,1.875,-2.0,-38.375,10.875,-4.25,13.1875,-0.03999999910593033,0.8600000143051147,9.760000228881836,0.6392822265625,0.03009033203125,-0.0343017578125,-0.76763916015625,100629.0625,26.54468536376953,58978.0
0.7400000095367432,2.0299999713897705,9.979999542236328,3.0625,-3.1875,-39.25,2.4375,-19.125,20.75,0.07999999821186066,0.9100000262260437,9.760000228881836,0.644775390625,0.02508544921875,-0.03912353515625,-0.762939453125,100629.03125,26.543458938598633,59018.0
1.8300000429153442,1.5800000429153442,9.75,1.75,-3.875,-39.6875,-7.5,-17.25,32.875,0.1899999976158142,0.8799999952316284,9.760000228881836,0.65338134765625,0.0186767578125,-0.04052734375,-0.7557373046875,100629.1484375,26.54427146911621,59058.0
1.4700000286102295,0.2199999988079071,9.239999771118164,1.75,-3.875,-39.6875,-5.125,-7.6875,40.625,0.2800000011920929,0.8100000023841858,9.760000228881836,0.66363525390625,0.0155029296875,-0.04144287109375,-0.74676513671875,100628.9375,26.54199981689453,59098.0
1.4900000095367432,0.550000011920929,8.420000076293945,1.5,-3.5625,-36.875,5.9375,-2.8125,40.625,0.3400000035762787,0.8299999833106995,9.760000228881836,0.673583984375,0.01580810546875,-0.043701171875,-0.73760986328125,100628.9765625,26.541440963745117,59138.0
1.2300000190734863,0.7099999785423279,8.029999732971191,0.75,-4.25,-38.5,6.0625,4.25,35.1875,0.3400000035762787,0.8500000238418579,9.760000228881836,0.68206787109375,0.017822265625,-0.0443115234375,-0.72967529296875,100628.96875,26.542179107666016,59178.0
0.6499999761581421,0.6899999976158142,8.050000190734863,0.375,-5.0625,-37.375,4.125,6.75,25.5625,0.3199999928474426,0.8799999952316284,9.760000228881836,0.6881103515625,0.01983642578125,-0.0439453125,-0.7239990234375,100629.03125,26.542720794677734,59218.0
0.550000011920929,0.7300000190734863,8.079999923706055,0.375,-5.0625,-37.375,0.75,1.75,14.3125,0.30000001192092896,0.8899999856948853,9.760000228881836,0.69134521484375,0.02001953125,-0.043701171875,-0.720947265625,100629.1796875,26.54486656188965,59258.0
0.7799999713897705,0.6700000166893005,7.820000171661377,0.375,-5.0625,-37.375,-2.875,0.5625,7.0,0.33000001311302185,0.8700000047683716,9.760000228881836,0.693115234375,0.01806640625,-0.043701171875,-0.71923828125,100629.4140625,26.54418182373047,59298.0
0.6499999761581421,0.9100000262260437,9.869999885559082,1.5625,-5.375,-37.6875,-7.5,-0.75,10.0625,0.3400000035762787,0.8299999833106995,9.760000228881836,0.6966552734375,0.01434326171875,-0.04156494140625,-0.716064453125,100629.65625,26.543657302856445,59338.0
0.9399999976158142,0.30000001192092896,10.40999984741211,2.25,-6.0,-36.875,-11.0,-8.0625,15.0,0.3799999952316284,0.75,9.760000228881836,0.6993408203125,0.01068115234375,-0.04144287109375,-0.7135009765625,100629.8046875,26.54268455505371,59378.0
1.6299999952316284,0.05999999865889549,10.880000114440918,1.1875,-6.75,-37.0,-3.625,-8.75,16.0,0.44999998807907104,0.699999988079071,9.770000457763672,0.7032470703125,0.00830078125,-0.042724609375,-0.7095947265625,100629.6640625,26.540790557861328,59418.0
0.9399999976158142,1.409999966621399,13.760000228881836,1.5625,-5.5625,-36.5625,6.25,3.0625,20.0625,0.4699999988079071,0.7200000286102295,9.760000228881836,0.7081298828125,0.0096435546875,-0.04278564453125,-0.7047119140625,100629.578125,26.539384841918945,59458.0
0.46000000834465027,0.47999998927116394,11.970000267028809,1.5625,-5.5625,-36.5625,-2.4375,0.375,18.125,0.46000000834465027,0.699999988079071,9.760000228881836,0.71221923828125,0.00909423828125,-0.04229736328125,-0.70062255859375,100629.3515625,26.540069580078125,59498.0
0.6200000047683716,0.41999998688697815,9.989999771118164,0.5,-6.375,-36.5,3.25,3.25,12.9375,0.46000000834465027,0.7099999785423279,9.760000228881836,0.704833984375,0.0106201171875,-0.04241943359375,-0.70806884765625,100629.078125,26.538843154907227,59538.0
0.009999999776482582,2.0899999141693115,9.4399995803833,0.875,-7.0625,-36.1875,-5.3125,14.3125,10.0625,0.38999998569488525,0.7300000190734863,9.770000457763672,0.70721435546875,0.0115966796875,-0.0364990234375,-0.7059326171875,100629.4921875,26.5373477935791,59578.0
-0.5299999713897705,0.09000000357627869,9.890000343322754,0.5,-8.1875,-36.0625,-25.6875,14.8125,2.9375,0.28999999165534973,0.5699999928474426,9.779999732971191,0.697021484375,0.00848388671875,-0.0272216796875,-0.71649169921875,100629.3046875,26.535057067871094,59618.0
-0.8199999928474426,-1.309999942779541,9.850000381469727,2.375,-7.6875,-35.5625,-14.0625,10.375,0.25,0.20999999344348907,0.4399999976158142,9.789999961853027,0.68365478515625,0.00811767578125,-0.02301025390625,-0.72943115234375,100629.1640625,26.532785415649414,59658.0
-0.5,-0.07000000029802322,9.029999732971191,2.375,-7.6875,-35.5625,13.0,-1.4375,2.375,0.1899999976158142,0.4699999988079071,9.789999961853027,0.671142578125,0.01007080078125,-0.0272216796875,-0.74072265625,100628.84375,26.531648635864258,59698.0
0.009999999776482582,0.46000000834465027,8.15999984741211,2.0,-7.6875,-35.5625,17.0,-10.8125,2.0,0.23999999463558197,0.5799999833106995,9.779999732971191,0.658203125,0.0103759765625,-0.0340576171875,-0.751953125,100629.0390625,26.53020668029785,59738.0
0.3700000047683716,0.8199999928474426,8.180000305175781,1.25,-8.875,-35.5625,13.375,-13.8125,-4.875,0.33000001311302185,0.6800000071525574,9.770000457763672,0.656494140625,0.0096435546875,-0.04010009765625,-0.75323486328125,100629.1171875,26.529142379760742,59778.0
0.6399999856948853,0.6800000071525574,8.369999885559082,1.0,-8.875,-34.875,6.1875,-10.4375,-11.625,0.4000000059604645,0.7300000190734863,9.770000457763672,0.640869140625,0.00787353515625,-0.0435791015625,-0.766357421875,100628.9921875,26.527753829956055,59818.0
0.18000000715255737,0.4000000059604645,8.0600004196167,0.6875,-9.5625,-34.875,1.9375,-3.8125,-13.4375,0.4399999976158142,0.7599999904632568,9.760000228881836,0.62420654296875,0.0068359375,-0.045166015625,-0.77996826171875,100628.796875,26.52614974975586,59858.0
0.23000000417232513,0.550000011920929,8.739999771118164,0.6875,-9.5625,-34.875,2.6875,-4.625,-15.3125,0.44999998807907104,0.7799999713897705,9.760000228881836,0.607666015625,0.00592041015625,-0.04693603515625,-0.79278564453125,100629.2578125,26.5255184173584,59898.0
0.3499999940395355,0.5299999713897705,9.979999542236328,0.25,-9.5625,-34.5,0.1875,0.6875,-14.4375,0.46000000834465027,0.800000011920929,9.760000228881836,0.589599609375,0.0059814453125,-0.04705810546875,-0.8062744140625,100629.734375,26.526185989379883,59938.0
0.4300000071525574,1.0800000429153442,9.8100004196167,0.6875,-10.6875,-34.5,3.625,5.375,-10.1875,0.4300000071525574,0.8199999928474426,9.760000228881836,0.5872802734375,0.00848388671875,-0.04681396484375,-0.8079833984375,100630.3515625,26.526708602905273,59978.0
0.9700000286102295,1.8200000524520874,12.890000343322754,1.375,-10.6875,-34.875,2.25,10.5,-2.8125,0.3700000047683716,0.8500000238418579,9.760000228881836,0.57196044921875,0.01068115234375,-0.04364013671875,-0.81903076171875,100630.1796875,26.5247802734375,60018.0
0.5699999928474426,0.4300000071525574,13.420000076293945,0.5625,-11.375,-34.375,-12.0,22.0,6.5,0.23999999463558197,0.7699999809265137,9.770000457763672,0.56011962890625,0.01409912109375,-0.037841796875,-0.82745361328125,100630.8984375,26.525644302368164,60058.0
-0.1599999964237213,1.4700000286102295,12.069999694824219,0.5625,-11.375,-34.375,1.1875,9.75,8.625,0.14000000059604645,0.7699999809265137,9.770000457763672,0.5501708984375,0.01531982421875,-0.03631591796875,-0.8341064453125,100630.0859375,26.52456283569336,60098.0
0.4300000071525574,1.5099999904632568,10.630000114440918,0.5625,-10.6875,-34.5,-15.625,-4.0625,11.25,0.15000000596046448,0.7099999785423279,9.770000457763672,0.53851318359375,0.0107421875,-0.0333251953125,-0.8419189453125,100629.875,26.522598266601562,60138.0
1.1699999570846558,0.550000011920929,9.720000267028809,1.6875,-11.75,-34.0625,-12.0,-3.625,13.1875,0.1899999976158142,0.6200000047683716,9.779999732971191,0.5423583984375,0.00787353515625,-0.03082275390625,-0.83953857421875,100630.390625,26.522274017333984,60178.0
1.1799999475479126,0.05999999865889549,8.819999694824219,0.5625,-11.375,-34.375,-4.0625,2.5625,15.25,0.18000000715255737,0.5799999833106995,9.779999732971191,0.53369140625,0.008544921875,-0.02972412109375,-0.8450927734375,100629.890625,26.519136428833008,60218.0
0.9399999976158142,0.09000000357627869,8.1899995803833,0.5625,-11.375,-34.375,5.5625,12.0,17.875,0.12999999523162842,0.5899999737739563,9.779999732971191,0.525146484375,0.01251220703125,-0.02947998046875,-0.85040283203125,100629.96875,26.520254135131836,60258.0
0.2199999988079071,0.30000001192092896,8.119999885559082,0.6875,-11.375,-34.375,10.125,12.3125,17.1875,0.05000000074505806,0.6499999761581421,9.779999732971191,0.51708984375,0.01702880859375,-0.03070068359375,-0.855224609375,100629.2890625,26.518217086791992,60298.0
0.029999999329447746,0.6299999952316284,8.0,-0.375,-12.0625,-34.0625,10.3125,7.125,13.0625,0.0,0.7200000286102295,9.770000457763672,0.5093994140625,0.02008056640625,-0.03265380859375,-0.85968017578125,100629.5,26.51668357849121,60338.0
0.15000000596046448,0.7400000095367432,8.380000114440918,-1.0625,-12.0625,-33.6875,5.5,3.1875,8.75,-0.019999999552965164,0.7699999809265137,9.770000457763672,0.51190185546875,0.021728515625,-0.0335693359375,-0.858154296875,100629.4453125,26.5161075592041,60378.0
0.27000001072883606,0.5299999713897705,7.929999828338623,-0.6875,-13.1875,-33.6875,1.875,2.25,7.125,-0.029999999329447746,0.7799999713897705,9.770000457763672,0.50128173828125,0.02215576171875,-0.0340576171875,-0.86431884765625,100629.859375,26.515674591064453,60418.0
0.23000000417232513,0.5799999833106995,9.430000305175781,-0.6875,-13.1875,-33.6875,1.6875,2.0625,4.875,-0.03999999910593033,0.800000011920929,9.770000457763672,0.49072265625,0.02197265625,-0.03460693359375,-0.870361328125,100630.2109375,26.515350341796875,60458.0
0.10000000149011612,0.3100000023841858,10.09000015258789,-0.6875,-12.875,-34.0625,4.75,-4.875,0.25,-0.019999999552965164,0.8100000023841858,9.770000457763672,0.4815673828125,0.02105712890625,-0.03680419921875,-0.8753662109375,100630.1953125,26.513961791992188,60498.0
0.699999988079071,1.149999976158142,10.350000381469727,-2.875,-12.875,-33.6875,1.6875,3.5625,4.3125,-0.009999999776482582,0.8299999833106995,9.770000457763672,0.47198486328125,0.02166748046875,-0.0364990234375,-0.88055419921875,100631.265625,26.512914657592773,60538.0
-1.850000023841858,1.5800000429153442,13.90999984741211,-1.5,-13.5625,-33.5625,-10.5625,-6.0,8.0,-0.019999999552965164,0.800000011920929,9.770000457763672,0.473876953125,0.0166015625,-0.03460693359375,-0.8797607421875,100631.0703125,26.50981330871582,60578.0
0.09000000357627869,-0.46000000834465027,11.710000038146973,-2.5625,-12.875,-34.75,-9.9375,-25.75,0.125,0.07000000029802322,0.7300000190734863,9.770000457763672,0.47271728515625,0.01007080078125,-0.0386962890625,-0.88031005859375,100630.7890625,26.50633430480957,60618.0
1.0800000429153442,1.2999999523162842,11.710000038146973,-2.5625,-12.875,-34.75,17.5625,-10.3125,-5.5,0.20000000298023224,0.7900000214576721,9.770000457763672,0.47052001953125,0.0111083984375,-0.0428466796875,-0.88128662109375,100630.4921875,26.505468368530273,60658.0
-0.49000000953674316,1.340000033378601,10.140000343322754,-2.875,-12.875,-32.75,-3.9375,-0.0625,-12.3125,0.1899999976158142,0.8299999833106995,9.760000228881836,0.45660400390625,0.0098876953125,-0.04168701171875,-0.888671875,100630.8046875,26.505395889282227,60698.0
-0.05999999865889549,0.46000000834465027,10.449999809265137,-3.25,-13.5625,-33.5625,-8.5,-1.6875,-16.9375,0.20000000298023224,0.7799999713897705,9.770000457763672,0.4417724609375,0.0086669921875,-0.04010009765625,-0.89617919921875,100630.5625,26.501861572265625,60738.0
-0.3199999928474426,-0.18000000715255737,9.149999618530273,-3.6875,-14.0,-34.0,4.125,-1.0625,-16.9375,0.1899999976158142,0.800000011920929,9.770000457763672,0.43701171875,0.00958251953125,-0.043701171875,-0.8983154296875,100630.9453125,26.500383377075195,60778.0
0.03999999910593033,0.7900000214576721,8.069999694824219,-4.25,-14.0,-33.25,17.125,-5.4375,-11.625,0.20999999344348907,0.8799999952316284,9.760000228881836,0.42578125,0.009765625,-0.04840087890625,-0.90350341796875,100631.515625,26.49984359741211,60818.0
0.09000000357627869,1.3700000047683716,7.860000133514404,-4.25,-14.0,-33.25,16.1875,-8.5,-5.5,0.25,0.9900000095367432,9.75,0.4151611328125,0.00872802734375,-0.054443359375,-0.9080810546875,100630.8671875,26.498868942260742,60858.0
0.4699999988079071,1.3799999952316284,8.1899995803833,-4.0,-14.375,-32.5,8.4375,-12.4375,-1.8125,0.3400000035762787,1.0800000429153442,9.739999771118164,0.4066162109375,0.00482177734375,-0.05914306640625,-0.91168212890625,100630.8359375,26.499284744262695,60898.0
0.5699999928474426,1.0499999523162842,8.449999809265137,-5.0,-15.0,-31.6875,1.8125,-9.375,2.0625,0.4099999964237213,1.090000033378601,9.729999542236328,0.39971923828125,0.00189208984375,-0.0604248046875,-0.91461181640625,100631.3359375,26.498435974121094,60938.0
0.3799999952316284,0.7300000190734863,8.180000305175781,-5.5,-15.375,-32.0625,-0.25,-5.9375,3.5625,0.46000000834465027,1.090000033378601,9.729999542236328,0.400634765625,0.000244140625,-0.06146240234375,-0.9141845703125,100631.7109375,26.496074676513672,60978.0
0.5400000214576721,1.1200000047683716,9.210000038146973,-5.875,-15.75,-31.25,3.375,-3.8125,3.3125,0.47999998927116394,1.100000023841858,9.729999542236328,0.393798828125,-0.00079345703125,-0.06219482421875,-0.9171142578125,100631.3203125,26.493152618408203,61018.0
0.38999998569488525,1.3200000524520874,10.0600004196167,-5.875,-15.75,-31.25,-6.5625,0.25,4.5,0.49000000953674316,1.090000033378601,9.729999542236328,0.387451171875,-0.00201416015625,-0.05963134765625,-0.91998291015625,100631.2578125,26.493261337280273,61058.0
0.30000001192092896,0.8199999928474426,10.550000190734863,-5.875,-16.1875,-32.5625,-15.1875,7.625,8.625,0.4699999988079071,1.0099999904632568,9.739999771118164,0.38336181640625,-0.00213623046875,-0.0543212890625,-0.9219970703125,100631.5390625,26.493928909301758,61098.0
0.6700000166893005,1.6799999475479126,14.5,-6.1875,-15.75,-32.5625,-3.875,4.625,13.3125,0.4300000071525574,0.9399999976158142,9.75,0.3878173828125,-0.0015869140625,-0.05157470703125,-0.9202880859375,100631.5390625,26.494434356689453,61138.0
0.6200000047683716,0.9100000262260437,12.300000190734863,-6.5625,-14.6875,-31.75,-18.0,6.375,18.75,0.4000000059604645,0.8500000238418579,9.760000228881836,0.3880615234375,-0.00244140625,-0.0457763671875,-0.92047119140625,100632.0234375,26.495370864868164,61178.0
0.9100000262260437,0.029999999329447746,10.569999694824219,-6.5625,-14.25,-32.5625,-19.375,5.1875,20.4375,0.3700000047683716,0.7400000095367432,9.770000457763672,0.38885498046875,-0.0035400390625,-0.04071044921875,-0.92041015625,100632.359375,26.49666976928711,61218.0
0.9800000190734863,1.6399999856948853,9.9399995803833,-6.5625,-14.25,-32.5625,-12.375,-0.875,18.0,0.3700000047683716,0.6700000166893005,9.770000457763672,0.38836669921875,-0.006591796875,-0.0361328125,-0.9207763671875,100631.5703125,26.491296768188477,61258.0
1.5499999523162842,0.30000001192092896,9.9399995803833,-6.875,-14.6875,-33.0,-14.125,-4.6875,18.75,0.4099999964237213,0.5400000214576721,9.779999732971191,0.389404296875,-0.01025390625,-0.0318603515625,-0.92047119140625,100631.2578125,26.48841094970703,61298.0
1.659999966621399,-0.8799999952316284,9.479999542236328,-8.25,-14.25,-32.1875,-3.4375,0.75,22.0,0.4300000071525574,0.4699999988079071,9.779999732971191,0.39642333984375,-0.0098876953125,-0.031494140625,-0.91748046875,100631.015625,26.48567008972168,61338.0
1.1399999856948853,0.33000001311302185,8.279999732971191,-9.0625,-13.5625,-33.75,14.1875,9.0,25.3125,0.38999998569488525,0.5199999809265137,9.779999732971191,0.40032958984375,-0.00543212890625,-0.03448486328125,-0.91571044921875,100630.5703125,26.481884002685547,61378.0
0.3799999952316284,0.6000000238418579,7.849999904632568,-8.6875,-13.25,-33.75,11.375,10.5625,22.6875,0.33000001311302185,0.6100000143051147,9.779999732971191,0.40283203125,-0.00140380859375,-0.03662109375,-0.91455078125,100630.9375,26.481937408447266,61418.0
0.699999988079071,0.5699999928474426,7.860000133514404,-8.6875,-13.25,-33.75,7.6875,3.125,11.8125,0.30000001192092896,0.6700000166893005,9.770000457763672,0.40325927734375,0.000244140625,-0.0384521484375,-0.914306640625,100630.1328125,26.48139762878418,61458.0
0.9100000262260437,0.5899999737739563,7.880000114440918,-9.75,-13.25,-32.5625,3.0,2.0625,3.125,0.28999999165534973,0.699999988079071,9.770000457763672,0.40185546875,0.00103759765625,-0.03887939453125,-0.91485595703125,100630.5625,26.482135772705078,61498.0
0.9300000071525574,0.23999999463558197,7.699999809265137,-10.875,-13.6875,-32.1875,-2.3125,2.375,-0.625,0.30000001192092896,0.6899999976158142,9.770000457763672,0.40167236328125,0.0003662109375,-0.0382080078125,-0.91497802734375,100631.1796875,26.482118606567383,61538.0
