Accel_X,Accel_Y,Accel_Z,Magneto_X,Magneto_Y,Magneto_Z,Gyro_X,Gyro_Y,Gyro_Z,Gravity_X,Gravity_Y,Gravity_Z,Quaternion_W,Quaternion_X,Quaternion_Y,Quaternion_Z,Pressure,Temperature,Time
0.9200000166893005,3.569999933242798,9.069999694824219,-27.1875,-23.6875,-42.5,-5.375,-2.5625,5.5625,0.9599999785423279,3.609999895095825,9.0600004196167,0.958740234375,0.17254638671875,-0.08905029296875,-0.2076416015625,83064.8515625,23.358642578125,39437.0
1.0199999809265137,3.569999933242798,9.0600004196167,-28.6875,-23.0,-42.875,-5.4375,-2.125,5.375,0.9900000095367432,3.569999933242798,9.069999694824219,0.9593505859375,0.17041015625,-0.08966064453125,-0.2061767578125,100619.1484375,24.543092727661133,39477.0
0.9599999785423279,3.299999952316284,9.050000190734863,-28.6875,-23.0,-42.875,-5.8125,-1.9375,4.5,1.0,3.5399999618530273,9.079999923706055,0.9599609375,0.16827392578125,-0.0902099609375,-0.205078125,100618.359375,24.56329345703125,39517.0
1.190000057220459,3.4600000381469727,9.0,-28.6875,-22.5625,-41.75,-2.8125,-1.75,2.8125,1.0299999713897705,3.509999990463257,9.09000015258789,0.96026611328125,0.16705322265625,-0.09088134765625,-0.204345703125,100617.8828125,24.595760345458984,39557.0
1.090000033378601,3.380000114440918,9.039999961853027,-29.375,-23.25,-42.1875,-3.125,0.0,3.4375,1.0399999618530273,3.490000009536743,9.100000381469727,0.96063232421875,0.16595458984375,-0.0909423828125,-0.203369140625,100616.453125,24.629920959472656,39597.0
1.0700000524520874,3.3499999046325684,9.079999923706055,-30.5,-22.25,-42.5,-1.625,0.0625,3.375,1.0499999523162842,3.4700000286102295,9.100000381469727,0.96099853515625,0.1651611328125,-0.09100341796875,-0.2022705078125,100614.6953125,24.664188385009766,39637.0
1.0800000429153442,3.509999990463257,9.130000114440918,-29.375,-22.0,-42.5,-0.375,0.0625,3.1875,1.059999942779541,3.4700000286102295,9.100000381469727,0.96124267578125,0.1649169921875,-0.09112548828125,-0.20123291015625,100613.09375,24.6973934173584,39677.0
1.149999976158142,3.430000066757202,9.050000190734863,-29.375,-22.0,-42.5,-1.1875,0.3125,2.6875,1.0700000524520874,3.4600000381469727,9.109999656677246,0.96148681640625,0.1644287109375,-0.091064453125,-0.20037841796875,100611.9453125,24.728073120117188,39717.0
1.1200000047683716,3.440000057220459,9.069999694824219,-29.0,-22.375,-43.0,-0.9375,0.8125,2.125,1.0700000524520874,3.450000047683716,9.109999656677246,0.96173095703125,0.16412353515625,-0.0908203125,-0.19970703125,100611.1796875,24.75570297241211,39757.0
1.0800000429153442,3.4600000381469727,9.050000190734863,-28.6875,-22.0,-43.0625,-1.125,1.625,1.6875,1.059999942779541,3.440000057220459,9.109999656677246,0.96197509765625,0.163818359375,-0.09027099609375,-0.19915771484375,100610.375,24.77873420715332,39797.0
1.0099999904632568,3.390000104904175,9.0600004196167,-28.375,-22.375,-43.0625,-1.0625,1.5,1.25,1.0499999523162842,3.430000066757202,9.119999885559082,0.962158203125,0.16351318359375,-0.08978271484375,-0.1986083984375,100609.65625,24.798322677612305,39837.0
1.0499999523162842,3.390000104904175,9.100000381469727,-29.0,-22.6875,-42.1875,-0.6875,1.0625,1.1875,1.0499999523162842,3.430000066757202,9.119999885559082,0.9622802734375,0.163330078125,-0.08953857421875,-0.1982421875,100609.0703125,24.816465377807617,39877.0
1.0099999904632568,3.4000000953674316,9.09000015258789,-29.0,-22.6875,-42.1875,-1.0625,0.9375,1.125,1.0499999523162842,3.4200000762939453,9.119999885559082,0.96246337890625,0.1629638671875,-0.08917236328125,-0.1978759765625,100608.5546875,24.83006477355957,39917.0
1.0299999713897705,3.3499999046325684,9.109999656677246,-29.75,-22.0,-43.375,-1.3125,0.3125,0.75,1.0499999523162842,3.4100000858306885,9.130000114440918,0.96258544921875,0.162353515625,-0.089111328125,-0.19775390625,100608.3125,24.840848922729492,39957.0
1.0499999523162842,3.309999942779541,9.100000381469727,-28.6875,-22.375,-42.875,-1.5625,0.5625,0.125,1.0499999523162842,3.4000000953674316,9.130000114440918,0.96270751953125,0.161865234375,-0.08892822265625,-0.19781494140625,100608.1328125,24.848371505737305,39997.0
1.059999942779541,3.299999952316284,9.130000114440918,-29.375,-21.5625,-42.5,-1.5,0.4375,-0.125,1.0499999523162842,3.390000104904175,9.130000114440918,0.9627685546875,0.16131591796875,-0.08880615234375,-0.19781494140625,100608.453125,24.856306076049805,40037.0
1.0299999713897705,3.2200000286102295,9.119999885559082,-29.375,-22.0,-42.1875,-1.25,0.625,0.0,1.0399999618530273,3.380000114440918,9.140000343322754,0.962890625,0.160888671875,-0.08856201171875,-0.19781494140625,100608.4296875,24.865161895751953,40077.0
0.9900000095367432,3.299999952316284,9.100000381469727,-29.375,-22.0,-42.1875,-0.4375,0.9375,0.5,1.0399999618530273,3.380000114440918,9.140000343322754,0.96295166015625,0.1607666015625,-0.08819580078125,-0.1976318359375,100608.3046875,24.872358322143555,40117.0
0.949999988079071,3.200000047683716,9.130000114440918,-29.0,-22.0,-42.5625,-0.8125,0.625,1.375,1.0399999618530273,3.369999885559082,9.140000343322754,0.963134765625,0.16046142578125,-0.0880126953125,-0.19720458984375,100608.203125,24.8812313079834,40157.0
1.1200000047683716,3.259999990463257,9.119999885559082,-28.6875,-22.375,-43.6875,0.375,-0.3125,1.6875,1.0399999618530273,3.359999895095825,9.149999618530273,0.96319580078125,0.16046142578125,-0.088134765625,-0.1966552734375,100607.515625,24.885000228881836,40197.0
1.1799999475479126,3.3299999237060547,9.069999694824219,-29.0,-22.375,-44.0625,0.875,0.1875,1.625,1.0399999618530273,3.369999885559082,9.140000343322754,0.96331787109375,0.16064453125,-0.088134765625,-0.196044921875,100607.5,24.890718460083008,40237.0
1.1399999856948853,3.390000104904175,9.100000381469727,-28.6875,-22.0,-43.0,0.4375,2.0,2.75,1.0399999618530273,3.369999885559082,9.140000343322754,0.96356201171875,0.16070556640625,-0.08770751953125,-0.1949462890625,100606.84375,24.8944149017334,40277.0
1.090000033378601,3.4200000762939453,9.130000114440918,-28.6875,-22.0,-43.0,-0.375,2.6875,4.0,1.0299999713897705,3.369999885559082,9.149999618530273,0.96392822265625,0.16070556640625,-0.0870361328125,-0.19342041015625,100606.8828125,24.898347854614258,40317.0
1.059999942779541,3.430000066757202,9.100000381469727,-28.375,-21.5625,-43.0,-0.75,2.5,5.1875,1.0299999713897705,3.359999895095825,9.149999618530273,0.96441650390625,0.16046142578125,-0.08648681640625,-0.19158935546875,100606.8359375,24.90303611755371,40357.0
1.0399999618530273,3.390000104904175,9.069999694824219,-28.6875,-20.875,-42.5625,-1.4375,2.8125,6.4375,1.0299999713897705,3.3499999046325684,9.149999618530273,0.9649658203125,0.15997314453125,-0.08587646484375,-0.18939208984375,100607.046875,24.906536102294922,40397.0
1.0800000429153442,3.25,9.109999656677246,-28.6875,-21.25,-43.0,-0.75,3.25,6.4375,1.0199999809265137,3.3399999141693115,9.15999984741211,0.96551513671875,0.1597900390625,-0.0850830078125,-0.18707275390625,100606.640625,24.90801429748535,40437.0
0.9599999785423279,3.2799999713897705,9.100000381469727,-29.375,-21.25,-44.0625,0.5,4.3125,6.25,1.0099999904632568,3.3299999237060547,9.15999984741211,0.96600341796875,0.1600341796875,-0.0841064453125,-0.18487548828125,100606.40625,24.910863876342773,40477.0
0.8999999761581421,3.430000066757202,9.119999885559082,-29.375,-21.25,-44.0625,0.75,3.625,4.75,1.0,3.3299999237060547,9.15999984741211,0.96636962890625,0.1602783203125,-0.083251953125,-0.18316650390625,100606.5,24.914146423339844,40517.0
0.8799999952316284,3.380000114440918,9.119999885559082,-28.6875,-21.5625,-43.0,-0.5625,2.875,2.6875,0.9900000095367432,3.3299999237060547,9.15999984741211,0.96661376953125,0.1602783203125,-0.08245849609375,-0.1822509765625,100606.296875,24.916040420532227,40557.0
0.9100000262260437,3.2899999618530273,9.149999618530273,-27.5,-20.875,-44.5,-0.75,1.9375,1.1875,0.9800000190734863,3.319999933242798,9.170000076293945,0.96673583984375,0.16009521484375,-0.081787109375,-0.181884765625,100606.3828125,24.919178009033203,40597.0
0.8700000047683716,3.299999952316284,9.15999984741211,-28.6875,-20.75,-43.6875,-0.3125,1.875,0.5625,0.9700000286102295,3.319999933242798,9.170000076293945,0.966796875,0.16021728515625,-0.08123779296875,-0.18170166015625,100606.1015625,24.919809341430664,40637.0
0.8299999833106995,3.2799999713897705,9.149999618530273,-29.0,-20.75,-42.5625,-0.1875,0.875,0.625,0.9599999785423279,3.319999933242798,9.170000076293945,0.96685791015625,0.16021728515625,-0.08099365234375,-0.18157958984375,100606.2734375,24.921432495117188,40677.0
0.8999999761581421,3.3299999237060547,9.100000381469727,-29.0,-20.75,-42.5625,0.5,0.4375,0.0,0.9599999785423279,3.319999933242798,9.170000076293945,0.96685791015625,0.16021728515625,-0.08099365234375,-0.18157958984375,100605.96875,24.923812866210938,40717.0
0.8899999856948853,3.319999933242798,9.119999885559082,-28.0,-20.375,-42.5625,-0.4375,0.1875,-0.4375,0.9599999785423279,3.319999933242798,9.170000076293945,0.96685791015625,0.16021728515625,-0.08099365234375,-0.181640625,100606.125,24.926156997680664,40757.0
0.8899999856948853,3.299999952316284,9.130000114440918,-28.375,-20.375,-45.25,-0.8125,0.625,-0.5625,0.9599999785423279,3.319999933242798,9.170000076293945,0.96685791015625,0.159912109375,-0.08087158203125,-0.18170166015625,100606.5703125,24.929079055786133,40797.0
0.800000011920929,3.240000009536743,9.130000114440918,-28.6875,-20.375,-44.0625,-0.875,-0.3125,-0.9375,0.9599999785423279,3.309999942779541,9.170000076293945,0.96685791015625,0.15960693359375,-0.08087158203125,-0.18206787109375,100606.15625,24.928970336914062,40837.0
0.8799999952316284,3.2100000381469727,9.15999984741211,-28.6875,-20.375,-44.0625,0.6875,-1.9375,-2.375,0.9599999785423279,3.309999942779541,9.170000076293945,0.96661376953125,0.15972900390625,-0.08135986328125,-0.1829833984375,100605.984375,24.930612564086914,40877.0
0.9100000262260437,3.3499999046325684,9.119999885559082,-28.6875,-21.5,-44.1875,0.1875,-1.8125,-3.0625,0.9700000286102295,3.319999933242798,9.170000076293945,0.96636962890625,0.15972900390625,-0.08172607421875,-0.18414306640625,100606.3515625,24.932992935180664,40917.0
0.8500000238418579,3.390000104904175,9.140000343322754,-29.0,-20.375,-43.6875,-0.4375,-2.625,-3.125,0.9700000286102295,3.319999933242798,9.170000076293945,0.96612548828125,0.15960693359375,-0.08233642578125,-0.185302734375,100605.6796875,24.93191146850586,40957.0
1.0199999809265137,3.259999990463257,9.069999694824219,-28.0,-21.5,-43.6875,-1.3125,-3.1875,-1.75,0.9800000190734863,3.319999933242798,9.170000076293945,0.96600341796875,0.15899658203125,-0.08319091796875,-0.18603515625,100605.6953125,24.93281364440918,40997.0
1.0399999618530273,3.180000066757202,9.130000114440918,-28.0,-20.75,-43.75,-1.25,-3.125,-0.625,1.0,3.309999942779541,9.170000076293945,0.96600341796875,0.158447265625,-0.084228515625,-0.186279296875,100605.03125,24.931766510009766,41037.0
1.1299999952316284,3.1600000858306885,9.069999694824219,-28.0,-20.75,-43.75,-0.75,-2.25,0.375,1.0199999809265137,3.299999952316284,9.170000076293945,0.9659423828125,0.15802001953125,-0.08502197265625,-0.1864013671875,100605.1328125,24.93385887145996,41077.0
1.1299999952316284,3.0899999141693115,9.109999656677246,-29.0,-20.75,-43.0,1.5,-2.1875,-1.3125,1.0299999713897705,3.299999952316284,9.170000076293945,0.96575927734375,0.15826416015625,-0.08575439453125,-0.1868896484375,100605.9609375,24.937753677368164,41117.0
1.159999966621399,3.2100000381469727,9.100000381469727,-28.0,-20.75,-43.0,1.75,-0.75,-1.9375,1.0399999618530273,3.309999942779541,9.15999984741211,0.96551513671875,0.1588134765625,-0.08599853515625,-0.1875,100605.9765625,24.9383487701416,41157.0
1.1100000143051147,3.3299999237060547,9.100000381469727,-29.375,-21.1875,-43.0,1.5,0.125,-1.0625,1.0399999618530273,3.319999933242798,9.15999984741211,0.96539306640625,0.15936279296875,-0.0860595703125,-0.187744140625,100605.9140625,24.93995475769043,41197.0
1.0199999809265137,3.3399999141693115,9.140000343322754,-29.0,-20.75,-43.0,1.125,0.1875,0.75,1.0399999618530273,3.3299999237060547,9.15999984741211,0.96539306640625,0.15966796875,-0.086181640625,-0.18743896484375,100606.7890625,24.942317962646484,41237.0
1.0399999618530273,3.3499999046325684,9.119999885559082,-29.0,-20.75,-43.0,0.9375,-0.625,1.3125,1.0399999618530273,3.3399999141693115,9.149999618530273,0.96539306640625,0.15972900390625,-0.08642578125,-0.1871337890625,100606.2734375,24.942354202270508,41277.0
1.1699999570846558,3.200000047683716,9.149999618530273,-28.6875,-20.75,-44.0625,0.0,-0.0625,0.1875,1.0499999523162842,3.3399999141693115,9.149999618530273,0.9654541015625,0.15960693359375,-0.08642578125,-0.18707275390625,100605.8515625,24.94239044189453,41317.0
1.0700000524520874,3.1500000953674316,9.100000381469727,-29.0,-21.5,-43.375,1.1875,1.5625,-0.9375,1.0399999618530273,3.3399999141693115,9.15999984741211,0.96533203125,0.16009521484375,-0.08599853515625,-0.18731689453125,100605.890625,24.94298553466797,41357.0
0.9300000071525574,3.299999952316284,9.15999984741211,-28.6875,-21.1875,-43.75,1.8125,0.9375,-1.375,1.0299999713897705,3.3499999046325684,9.149999618530273,0.9652099609375,0.16070556640625,-0.0858154296875,-0.1876220703125,100605.7421875,24.944013595581055,41397.0
0.949999988079071,3.359999895095825,9.130000114440918,-29.75,-20.75,-43.6875,1.375,-0.0625,-1.0625,1.0299999713897705,3.359999895095825,9.149999618530273,0.965087890625,0.16107177734375,-0.0858154296875,-0.18792724609375,100605.65625,24.94419288635254,41437.0
0.9900000095367432,3.299999952316284,9.170000076293945,-29.75,-20.75,-43.6875,0.8125,-0.25,-0.75,1.0199999809265137,3.359999895095825,9.149999618530273,0.9649658203125,0.161376953125,-0.08575439453125,-0.188232421875,100605.6171875,24.947799682617188,41477.0
0.9599999785423279,3.2899999618530273,9.140000343322754,-28.6875,-21.1875,-43.375,1.0625,-0.4375,-1.6875,1.0199999809265137,3.369999885559082,9.149999618530273,0.96478271484375,0.1617431640625,-0.08587646484375,-0.18890380859375,100605.4609375,24.948774337768555,41517.0
1.0199999809265137,3.2899999618530273,9.130000114440918,-29.0,-20.75,-42.5625,0.875,-1.0625,-2.3125,1.0199999809265137,3.380000114440918,9.140000343322754,0.96453857421875,0.16204833984375,-0.086181640625,-0.18963623046875,100605.375,24.948936462402344,41557.0
0.9700000286102295,3.2300000190734863,9.109999656677246,-29.0,-20.75,-43.375,0.6875,-0.5625,-1.8125,1.0199999809265137,3.380000114440918,9.140000343322754,0.96441650390625,0.162109375,-0.0863037109375,-0.19012451171875,100605.4921875,24.949621200561523,41597.0
0.949999988079071,3.2300000190734863,9.140000343322754,-28.25,-20.75,-42.1875,1.6875,-1.4375,-1.1875,1.0199999809265137,3.390000104904175,9.140000343322754,0.9642333984375,0.16253662109375,-0.0867919921875,-0.19049072265625,100605.7890625,24.950143814086914,41637.0
1.1100000143051147,3.4800000190734863,9.0600004196167,-28.25,-20.75,-42.1875,3.0,-1.3125,-1.0,1.0299999713897705,3.4000000953674316,9.130000114440918,0.9639892578125,0.16339111328125,-0.08734130859375,-0.19073486328125,100606.2578125,24.953426361083984,41677.0
1.0700000524520874,3.4600000381469727,9.09000015258789,-28.875,-21.1875,-42.6875,1.25,-0.8125,0.125,1.0399999618530273,3.4200000762939453,9.130000114440918,0.9638671875,0.163818359375,-0.08770751953125,-0.19073486328125,100606.0703125,24.95472526550293,41717.0
1.0800000429153442,3.4800000190734863,9.09000015258789,-28.25,-20.75,-43.375,1.0,-0.625,0.5625,1.0399999618530273,3.4200000762939453,9.119999885559082,0.9638671875,0.16412353515625,-0.08782958984375,-0.1905517578125,100606.265625,24.954545974731445,41757.0
1.0499999523162842,3.450000047683716,9.119999885559082,-29.25,-21.5,-44.0625,0.6875,-0.5625,1.0625,1.0399999618530273,3.430000066757202,9.119999885559082,0.96392822265625,0.16424560546875,-0.08795166015625,-0.19012451171875,100606.6484375,24.95557403564453,41797.0
1.0499999523162842,3.450000047683716,9.079999923706055,-28.5625,-22.5625,-43.6875,0.75,-0.375,1.3125,1.0499999523162842,3.430000066757202,9.119999885559082,0.9639892578125,0.16424560546875,-0.0880126953125,-0.18975830078125,100607.6875,24.95806121826172,41837.0
1.0299999713897705,3.4200000762939453,9.09000015258789,-28.5625,-22.5625,-43.6875,-0.1875,-0.5625,1.625,1.0499999523162842,3.430000066757202,9.119999885559082,0.96405029296875,0.1641845703125,-0.0882568359375,-0.1893310546875,100606.6015625,24.958784103393555,41877.0
1.1299999952316284,3.509999990463257,9.079999923706055,-28.5625,-21.5,-43.75,0.125,-0.5,1.3125,1.059999942779541,3.430000066757202,9.119999885559082,0.964111328125,0.1641845703125,-0.08843994140625,-0.1888427734375,100607.0,24.962209701538086,41917.0
1.100000023841858,3.509999990463257,9.069999694824219,-28.875,-21.875,-42.5625,-1.125,-0.0625,1.4375,1.059999942779541,3.4200000762939453,9.119999885559082,0.96429443359375,0.16375732421875,-0.0885009765625,-0.18841552734375,100606.734375,24.960731506347656,41957.0
1.1299999952316284,3.390000104904175,9.069999694824219,-29.25,-21.875,-42.5625,-2.625,0.375,1.8125,1.0700000524520874,3.4100000858306885,9.130000114440918,0.96453857421875,0.162841796875,-0.08843994140625,-0.1878662109375,100606.9296875,24.960784912109375,41997.0
1.1399999856948853,3.3399999141693115,9.079999923706055,-28.5625,-20.75,-43.375,-2.8125,0.5,1.75,1.0700000524520874,3.390000104904175,9.130000114440918,0.96484375,0.161865234375,-0.08831787109375,-0.1873779296875,100606.8203125,24.96197509765625,42037.0
1.149999976158142,3.2699999809265137,9.109999656677246,-28.5625,-20.75,-43.375,-2.5,0.8125,1.75,1.0700000524520874,3.369999885559082,9.140000343322754,0.965087890625,0.16107177734375,-0.0880126953125,-0.18682861328125,100606.1640625,24.963455200195312,42077.0
1.100000023841858,3.2699999809265137,9.140000343322754,-28.5625,-21.5,-43.0,-2.0,1.0625,1.5625,1.0700000524520874,3.359999895095825,9.140000343322754,0.96533203125,0.160400390625,-0.087646484375,-0.18634033203125,100606.4140625,24.96686363220215,42117.0
1.090000033378601,3.2200000286102295,9.149999618530273,-28.5625,-21.5,-42.1875,-1.75,1.25,1.25,1.0700000524520874,3.3499999046325684,9.149999618530273,0.96551513671875,0.159912109375,-0.087158203125,-0.18585205078125,100607.5,24.969425201416016,42157.0
1.0800000429153442,3.359999895095825,9.119999885559082,-28.5625,-20.75,-43.0,-1.25,1.3125,1.625,1.059999942779541,3.3399999141693115,9.149999618530273,0.96575927734375,0.159423828125,-0.08673095703125,-0.18524169921875,100607.453125,24.96902847290039,42197.0
1.059999942779541,3.2200000286102295,9.130000114440918,-28.875,-21.1875,-44.1875,-3.4375,1.6875,2.75,1.059999942779541,3.319999933242798,9.15999984741211,0.9661865234375,0.1583251953125,-0.08612060546875,-0.18438720703125,100607.109375,24.968162536621094,42237.0
1.0,3.2300000190734863,9.100000381469727,-28.875,-21.1875,-44.1875,-3.375,1.25,2.8125,1.0499999523162842,3.299999952316284,9.170000076293945,0.966552734375,0.1572265625,-0.085693359375,-0.1834716796875,100606.984375,24.96982192993164,42277.0
1.0099999904632568,3.450000047683716,9.15999984741211,-28.375,-20.0625,-43.75,-5.75,0.875,3.625,1.059999942779541,3.2699999809265137,9.180000305175781,0.96710205078125,0.15533447265625,-0.08538818359375,-0.182373046875,100606.421875,24.969911575317383,42317.0
1.0,3.2100000381469727,9.15999984741211,-28.6875,-20.375,-43.375,-4.9375,0.3125,5.0,1.059999942779541,3.2300000190734863,9.1899995803833,0.96771240234375,0.15350341796875,-0.08544921875,-0.1807861328125,100606.578125,24.9699649810791,42357.0
1.2000000476837158,3.0399999618530273,9.170000076293945,-29.75,-20.0625,-43.75,-3.5625,-0.4375,6.4375,1.0800000429153442,3.200000047683716,9.199999809265137,0.96826171875,0.15216064453125,-0.08563232421875,-0.1787109375,100606.65625,24.971174240112305,42397.0
1.1699999570846558,3.2300000190734863,9.130000114440918,-30.1875,-20.0625,-44.1875,-3.5625,0.875,7.25,1.090000033378601,3.1700000762939453,9.210000038146973,0.96893310546875,0.150634765625,-0.08544921875,-0.17645263671875,100606.5703125,24.972076416015625,42437.0
1.1100000143051147,2.8399999141693115,9.220000267028809,-30.1875,-20.0625,-44.1875,-4.125,1.8125,6.8125,1.100000023841858,3.140000104904175,9.220000267028809,0.9696044921875,0.1494140625,-0.08502197265625,-0.17413330078125,100606.1484375,24.972183227539062,42477.0
1.0199999809265137,3.0799999237060547,9.25,-29.75,-19.0625,-43.0,-2.0,1.875,7.5625,1.100000023841858,3.119999885559082,9.220000267028809,0.97021484375,0.148681640625,-0.08465576171875,-0.171630859375,100606.7578125,24.974563598632812,42517.0
1.0199999809265137,3.119999885559082,9.170000076293945,-28.6875,-19.75,-42.5625,-1.8125,1.9375,7.4375,1.1100000143051147,3.0999999046325684,9.229999542236328,0.97076416015625,0.14794921875,-0.08428955078125,-0.16912841796875,100606.5703125,24.974618911743164,42557.0
1.100000023841858,3.009999990463257,9.130000114440918,-28.5625,-19.0,-43.75,-2.625,1.5625,6.5,1.1100000143051147,3.0799999237060547,9.239999771118164,0.9713134765625,0.14703369140625,-0.083984375,-0.16705322265625,100606.1171875,24.974077224731445,42597.0
1.0700000524520874,2.809999942779541,9.199999809265137,-28.5625,-18.5625,-44.1875,0.1875,1.1875,4.6875,1.1100000143051147,3.069999933242798,9.239999771118164,0.97161865234375,0.14691162109375,-0.08380126953125,-0.16546630859375,100606.484375,24.974834442138672,42637.0
1.090000033378601,3.0,9.1899995803833,-28.5625,-18.5625,-44.1875,0.625,1.625,3.8125,1.1100000143051147,3.069999933242798,9.239999771118164,0.9718017578125,0.14715576171875,-0.08349609375,-0.16412353515625,100606.7578125,24.975393295288086,42677.0
1.0399999618530273,3.0,9.210000038146973,-29.0,-18.875,-43.75,0.875,1.3125,3.1875,1.1100000143051147,3.069999933242798,9.239999771118164,0.971923828125,0.14764404296875,-0.08343505859375,-0.1629638671875,100606.6796875,24.977558135986328,42717.0
1.0,3.130000114440918,9.279999732971191,-29.6875,-18.875,-43.0,2.8125,-0.5,2.1875,1.1200000047683716,3.0799999237060547,9.229999542236328,0.971923828125,0.1483154296875,-0.08380126953125,-0.1622314453125,100606.125,24.975719451904297,42757.0
1.2200000286102295,3.2100000381469727,9.210000038146973,-29.6875,-18.875,-43.375,-1.0,-0.4375,1.5,1.1200000047683716,3.0899999141693115,9.229999542236328,0.9720458984375,0.14801025390625,-0.08392333984375,-0.16180419921875,100606.5546875,24.977792739868164,42797.0
1.2200000286102295,3.059999942779541,9.229999542236328,-29.25,-18.875,-44.5,-0.625,0.75,0.9375,1.1200000047683716,3.0799999237060547,9.229999542236328,0.97216796875,0.1478271484375,-0.08367919921875,-0.16143798828125,100605.984375,24.97818946838379,42837.0
1.2100000381469727,3.0,9.1899995803833,-29.25,-18.875,-44.5,-1.1875,2.0,2.0,1.1200000047683716,3.069999933242798,9.239999771118164,0.972412109375,0.14752197265625,-0.0830078125,-0.16064453125,100606.7421875,24.980228424072266,42877.0
1.149999976158142,2.990000009536743,9.15999984741211,-30.0625,-18.875,-43.75,-1.25,3.125,3.5625,1.1100000143051147,3.059999942779541,9.239999771118164,0.97271728515625,0.147216796875,-0.0821533203125,-0.15936279296875,100607.234375,24.981184005737305,42917.0
1.0299999713897705,2.9800000190734863,9.239999771118164,-28.5625,-17.875,-45.0,-0.75,2.3125,3.9375,1.100000023841858,3.059999942779541,9.25,0.9730224609375,0.14697265625,-0.08148193359375,-0.157958984375,100607.0703125,24.98130989074707,42957.0
1.0199999809265137,3.009999990463257,9.199999809265137,-28.875,-19.0,-44.1875,-0.4375,2.75,3.875,1.090000033378601,3.049999952316284,9.25,0.97332763671875,0.1468505859375,-0.08074951171875,-0.15655517578125,100606.875,24.980262756347656,42997.0
1.0,2.9000000953674316,9.260000228881836,-28.875,-19.0,-44.1875,-0.4375,2.1875,3.3125,1.0800000429153442,3.0399999618530273,9.25,0.97357177734375,0.14691162109375,-0.08026123046875,-0.15545654296875,100606.8671875,24.98235511779785,43037.0
0.9300000071525574,2.9600000381469727,9.229999542236328,-28.5625,-18.0625,-45.0,0.8125,0.3125,2.4375,1.0800000429153442,3.049999952316284,9.25,0.9736328125,0.147216796875,-0.08038330078125,-0.1546630859375,100607.53125,24.985078811645508,43077.0
1.1399999856948853,2.940000057220459,9.229999542236328,-29.25,-18.0625,-43.375,1.9375,-1.25,1.0625,1.090000033378601,3.049999952316284,9.25,0.97357177734375,0.14764404296875,-0.0809326171875,-0.154296875,100608.1484375,24.98538589477539,43117.0
1.2400000095367432,3.180000066757202,9.149999618530273,-29.6875,-18.0625,-44.5,0.25,-0.25,1.75,1.100000023841858,3.059999942779541,9.25,0.9736328125,0.14764404296875,-0.08099365234375,-0.1536865234375,100608.140625,24.984466552734375,43157.0
1.1699999570846558,3.0199999809265137,9.229999542236328,-29.6875,-17.375,-43.75,0.0,1.375,2.375,1.100000023841858,3.059999942779541,9.25,0.97381591796875,0.14764404296875,-0.08056640625,-0.15277099609375,100607.8984375,24.983779907226562,43197.0
1.159999966621399,3.0399999618530273,9.210000038146973,-29.6875,-17.375,-43.75,0.0625,1.9375,2.75,1.090000033378601,3.059999942779541,9.25,0.97406005859375,0.147705078125,-0.08001708984375,-0.15167236328125,100608.15625,24.98787498474121,43237.0
1.0700000524520874,3.0399999618530273,9.210000038146973,-29.6875,-17.875,-44.1875,0.0625,2.375,3.3125,1.0800000429153442,3.049999952316284,9.25,0.9742431640625,0.14776611328125,-0.07952880859375,-0.1505126953125,100607.9609375,24.989227294921875,43277.0
1.059999942779541,3.109999895095825,9.1899995803833,-30.75,-17.875,-44.5,0.5,1.625,3.0,1.0800000429153442,3.049999952316284,9.25,0.97442626953125,0.14776611328125,-0.0791015625,-0.14947509765625,100607.5390625,24.987350463867188,43317.0
1.090000033378601,3.049999952316284,9.220000267028809,-30.0625,-18.1875,-44.1875,-0.6875,0.9375,2.4375,1.0700000524520874,3.049999952316284,9.25,0.97467041015625,0.1474609375,-0.07879638671875,-0.148681640625,100607.265625,24.987098693847656,43357.0
1.0199999809265137,2.990000009536743,9.220000267028809,-28.875,-17.875,-43.6875,-0.875,1.9375,2.375,1.0700000524520874,3.0399999618530273,9.25,0.97479248046875,0.147216796875,-0.078369140625,-0.1480712890625,100607.296875,24.986900329589844,43397.0
0.9900000095367432,2.9700000286102295,9.239999771118164,-28.875,-17.875,-43.6875,-1.0625,1.3125,1.6875,1.059999942779541,3.0299999713897705,9.260000228881836,0.9749755859375,0.14691162109375,-0.0780029296875,-0.1474609375,100606.9921875,24.988487243652344,43437.0
0.9800000190734863,2.9100000858306885,9.260000228881836,-28.5625,-17.5,-44.1875,-0.625,0.9375,1.4375,1.059999942779541,3.0299999713897705,9.260000228881836,0.97509765625,0.14678955078125,-0.07769775390625,-0.14691162109375,100607.296875,24.991987228393555,43477.0
0.9700000286102295,2.930000066757202,9.239999771118164,-29.25,-17.1875,-44.5,-0.375,0.5,0.75,1.059999942779541,3.0299999713897705,9.260000228881836,0.97509765625,0.14678955078125,-0.07757568359375,-0.1468505859375,100607.640625,24.992311477661133,43517.0
0.9700000286102295,2.940000057220459,9.239999771118164,-29.25,-17.1875,-44.1875,0.1875,0.25,-0.0625,1.059999942779541,3.0299999713897705,9.260000228881836,0.97509765625,0.14678955078125,-0.07757568359375,-0.1468505859375,100607.234375,24.990814208984375,43557.0
0.9900000095367432,2.9600000381469727,9.300000190734863,-29.25,-17.1875,-45.6875,-0.75,-0.25,-0.6875,1.059999942779541,3.0199999809265137,9.260000228881836,0.97515869140625,0.14642333984375,-0.0775146484375,-0.14715576171875,100607.375,24.990272521972656,43597.0
1.0,2.9200000762939453,9.289999961853027,-29.25,-17.1875,-45.6875,-1.25,-0.3125,-0.9375,1.0499999523162842,3.0199999809265137,9.260000228881836,0.97515869140625,0.14617919921875,-0.07745361328125,-0.14739990234375,100607.40625,24.99216651916504,43637.0
0.9900000095367432,2.9100000858306885,9.260000228881836,-29.6875,-17.875,-44.5,-0.8125,-0.6875,-1.0625,1.0499999523162842,3.009999990463257,9.270000457763672,0.97509765625,0.14581298828125,-0.07763671875,-0.14794921875,100607.4765625,24.9924373626709,43677.0
1.0099999904632568,2.890000104904175,9.229999542236328,-28.5625,-18.25,-45.6875,-0.875,-0.875,-1.1875,1.059999942779541,3.009999990463257,9.270000457763672,0.97503662109375,0.1455078125,-0.077880859375,-0.14837646484375,100606.7109375,24.991498947143555,43717.0
1.0299999713897705,2.859999895095825,9.229999542236328,-29.25,-17.1875,-44.1875,-0.8125,-0.9375,-1.125,1.059999942779541,3.0,9.270000457763672,0.97503662109375,0.1453857421875,-0.07806396484375,-0.148681640625,100607.09375,24.991931915283203,43757.0
0.9900000095367432,2.7899999618530273,9.260000228881836,-29.6875,-17.5,-45.375,-0.6875,-1.4375,-0.8125,1.0700000524520874,3.0,9.270000457763672,0.9749755859375,0.14520263671875,-0.07855224609375,-0.1490478515625,100606.5546875,24.992834091186523,43797.0
1.2000000476837158,2.9600000381469727,9.239999771118164,-29.6875,-17.5,-45.375,0.625,-2.6875,-1.4375,1.0800000429153442,3.0,9.270000457763672,0.97479248046875,0.145263671875,-0.07928466796875,-0.149658203125,100606.640625,24.99582862854004,43837.0
1.159999966621399,2.890000104904175,9.199999809265137,-29.25,-17.1875,-43.75,-0.125,-0.75,-1.625,1.090000033378601,3.009999990463257,9.260000228881836,0.97467041015625,0.145263671875,-0.079345703125,-0.1502685546875,100606.7421875,24.999217987060547,43877.0
1.0800000429153442,2.8399999141693115,9.199999809265137,-30.0625,-17.5,-45.0,0.3125,-0.1875,-1.3125,1.0800000429153442,3.009999990463257,9.260000228881836,0.974609375,0.1453857421875,-0.07928466796875,-0.150634765625,100607.5,24.99947166442871,43917.0
1.1100000143051147,2.9100000858306885,9.239999771118164,-30.0625,-18.1875,-44.5,0.8125,-0.125,-0.3125,1.0800000429153442,3.009999990463257,9.260000228881836,0.97454833984375,0.1456298828125,-0.079345703125,-0.15069580078125,100607.4296875,24.999074935913086,43957.0
1.0800000429153442,2.9000000953674316,9.220000267028809,-28.25,-17.875,-45.6875,0.625,-0.3125,0.25,1.0800000429153442,3.0199999809265137,9.260000228881836,0.97454833984375,0.1458740234375,-0.07940673828125,-0.15069580078125,100607.484375,25.000499725341797,43997.0
1.0299999713897705,2.890000104904175,9.25,-28.25,-17.875,-45.6875,0.75,0.0625,0.0625,1.0800000429153442,3.0199999809265137,9.260000228881836,0.9744873046875,0.1461181640625,-0.07940673828125,-0.150634765625,100607.484375,25.00042724609375,44037.0
1.149999976158142,2.9000000953674316,9.229999542236328,-30.0625,-16.0625,-45.375,1.0625,-0.5,-0.8125,1.0800000429153442,3.0299999713897705,9.260000228881836,0.97442626953125,0.146484375,-0.0794677734375,-0.15087890625,100607.6484375,25.00324058532715,44077.0
1.059999942779541,2.930000066757202,9.210000038146973,-30.375,-17.5,-45.0,0.5625,-0.3125,-0.375,1.0800000429153442,3.0299999713897705,9.260000228881836,0.974365234375,0.14654541015625,-0.0794677734375,-0.15087890625,100607.71875,25.003637313842773,44117.0
1.0800000429153442,2.869999885559082,9.239999771118164,-28.25,-17.875,-44.1875,0.1875,-0.6875,-0.625,1.0800000429153442,3.0299999713897705,9.260000228881836,0.974365234375,0.14654541015625,-0.07965087890625,-0.1510009765625,100608.3359375,25.00450325012207,44157.0
1.090000033378601,2.9200000762939453,9.25,-29.6875,-17.875,-45.375,0.4375,-1.0625,-0.75,1.090000033378601,3.0299999713897705,9.260000228881836,0.97430419921875,0.1466064453125,-0.0799560546875,-0.15130615234375,100608.5859375,25.004575729370117,44197.0
1.1699999570846558,2.990000009536743,9.229999542236328,-29.6875,-17.875,-45.375,1.0625,-1.4375,-1.375,1.090000033378601,3.0399999618530273,9.25,0.97412109375,0.1468505859375,-0.080322265625,-0.1517333984375,100608.1015625,25.004051208496094,44237.0
1.090000033378601,3.009999990463257,9.220000267028809,-29.25,-18.1875,-45.6875,0.3125,-0.5,-1.4375,1.090000033378601,3.0399999618530273,9.25,0.97406005859375,0.14691162109375,-0.08026123046875,-0.15216064453125,100608.1484375,25.004810333251953,44277.0
1.0700000524520874,2.9800000190734863,9.220000267028809,-29.25,-17.875,-44.5625,-0.0625,-0.8125,-1.125,1.090000033378601,3.0399999618530273,9.25,0.9739990234375,0.1468505859375,-0.0804443359375,-0.152587890625,100608.34375,25.005386352539062,44317.0
1.1100000143051147,2.950000047683716,9.25,-29.25,-17.1875,-45.0,0.125,-1.1875,-0.8125,1.100000023841858,3.0399999618530273,9.25,0.97393798828125,0.1468505859375,-0.080810546875,-0.1529541015625,100608.484375,25.00581932067871,44357.0
1.1299999952316284,2.9800000190734863,9.220000267028809,-29.25,-18.1875,-45.0,-0.4375,-1.0,-0.8125,1.100000023841858,3.0399999618530273,9.25,0.97381591796875,0.14678955078125,-0.08111572265625,-0.1533203125,100608.09375,25.00614356994629,44397.0
1.149999976158142,2.930000066757202,9.229999542236328,-29.25,-18.1875,-45.0,0.0,-0.625,-0.75,1.100000023841858,3.0399999618530273,9.25,0.97381591796875,0.14678955078125,-0.081298828125,-0.1534423828125,100607.4375,25.00464630126953,44437.0
1.0499999523162842,2.950000047683716,9.199999809265137,-29.6875,-17.5,-46.5,-0.3125,-1.25,-0.6875,1.1100000143051147,3.0399999618530273,9.25,0.9737548828125,0.146728515625,-0.081787109375,-0.15374755859375,100607.015625,25.005260467529297,44477.0
1.190000057220459,2.9100000858306885,9.279999732971191,-28.875,-18.5625,-44.5,1.0,-2.75,-1.9375,1.1200000047683716,3.049999952316284,9.25,0.9735107421875,0.14697265625,-0.08251953125,-0.15447998046875,100607.3828125,25.00572967529297,44517.0
1.2300000190734863,3.0799999237060547,9.220000267028809,-28.5625,-17.875,-44.5,0.5,-0.75,-1.875,1.1299999952316284,3.049999952316284,9.239999771118164,0.973388671875,0.1470947265625,-0.0826416015625,-0.15509033203125,100607.046875,25.005495071411133,44557.0
1.1699999570846558,2.9700000286102295,9.210000038146973,-30.0625,-17.875,-44.0625,0.0625,-0.3125,-0.5625,1.1299999952316284,3.049999952316284,9.239999771118164,0.973388671875,0.1470947265625,-0.0826416015625,-0.1551513671875,100606.7890625,25.006467819213867,44597.0
1.190000057220459,2.950000047683716,9.1899995803833,-30.0625,-17.875,-44.0625,0.4375,-0.25,0.875,1.1299999952316284,3.049999952316284,9.239999771118164,0.973388671875,0.14715576171875,-0.08270263671875,-0.1549072265625,100607.171875,25.008939743041992,44637.0
1.2599999904632568,2.950000047683716,9.239999771118164,-28.875,-17.5,-44.875,0.6875,0.125,0.75,1.1299999952316284,3.059999942779541,9.239999771118164,0.973388671875,0.14739990234375,-0.08270263671875,-0.15472412109375,100607.5703125,25.009065628051758,44677.0
1.2899999618530273,3.009999990463257,9.180000305175781,-30.375,-17.5,-44.875,0.375,1.75,0.0625,1.1200000047683716,3.059999942779541,9.239999771118164,0.97344970703125,0.1474609375,-0.08221435546875,-0.1546630859375,100607.25,25.009733200073242,44717.0
1.1699999570846558,2.9200000762939453,9.229999542236328,-29.6875,-17.5,-44.375,0.875,1.0,0.0,1.1100000143051147,3.059999942779541,9.239999771118164,0.97344970703125,0.14776611328125,-0.08197021484375,-0.154541015625,100607.6484375,25.01137351989746,44757.0
1.1299999952316284,3.049999952316284,9.229999542236328,-29.6875,-17.5,-44.375,0.5,1.125,1.1875,1.1100000143051147,3.069999933242798,9.239999771118164,0.9735107421875,0.1478271484375,-0.08172607421875,-0.154052734375,100607.453125,25.012041091918945,44797.0
1.1200000047683716,3.0199999809265137,9.220000267028809,-29.6875,-18.25,-45.5625,0.1875,0.25,1.4375,1.1100000143051147,3.059999942779541,9.239999771118164,0.97357177734375,0.1478271484375,-0.08172607421875,-0.153564453125,100607.34375,25.01254653930664,44837.0
1.1200000047683716,3.0299999713897705,9.1899995803833,-30.375,-18.5625,-43.6875,0.75,0.125,0.9375,1.1100000143051147,3.069999933242798,9.239999771118164,0.97357177734375,0.14794921875,-0.081787109375,-0.15338134765625,100607.1953125,25.012331008911133,44877.0
1.1799999475479126,3.009999990463257,9.199999809265137,-29.25,-17.5,-43.375,0.5,0.125,0.0,1.1100000143051147,3.069999933242798,9.239999771118164,0.97357177734375,0.14794921875,-0.081787109375,-0.15338134765625,100608.2109375,25.015071868896484,44917.0
1.1699999570846558,2.990000009536743,9.220000267028809,-30.0625,-18.1875,-45.375,0.6875,0.5625,-0.5625,1.1100000143051147,3.069999933242798,9.239999771118164,0.97357177734375,0.148193359375,-0.0816650390625,-0.1533203125,100608.625,25.01653289794922,44957.0
1.090000033378601,3.0799999237060547,9.199999809265137,-30.0625,-18.1875,-45.375,0.75,0.875,-0.3125,1.1100000143051147,3.069999933242798,9.239999771118164,0.97357177734375,0.14825439453125,-0.08135986328125,-0.15325927734375,100608.5390625,25.016496658325195,44997.0
1.059999942779541,3.0899999141693115,9.220000267028809,-28.875,-17.1875,-45.0,-0.3125,0.5625,0.25,1.100000023841858,3.069999933242798,9.239999771118164,0.9736328125,0.14813232421875,-0.08135986328125,-0.15325927734375,100608.21875,25.018768310546875,45037.0
1.100000023841858,3.0299999713897705,9.220000267028809,-28.875,-17.875,-43.75,-1.1875,0.0625,0.375,1.100000023841858,3.059999942779541,9.239999771118164,0.97369384765625,0.147705078125,-0.081298828125,-0.1533203125,100608.484375,25.020463943481445,45077.0
1.1299999952316284,2.930000066757202,9.239999771118164,-28.5625,-18.5625,-43.75,-1.3125,0.25,-0.125,1.100000023841858,3.059999942779541,9.25,0.9737548828125,0.14727783203125,-0.08123779296875,-0.15338134765625,100609.0,25.021167755126953,45117.0
1.0299999713897705,2.9000000953674316,9.199999809265137,-29.25,-17.5,-44.5,-1.0625,-0.125,-0.9375,1.100000023841858,3.049999952316284,9.25,0.97369384765625,0.14703369140625,-0.081298828125,-0.15386962890625,100608.9296875,25.0211124420166,45157.0
1.090000033378601,2.9100000858306885,9.239999771118164,-29.25,-17.5,-44.5,-0.375,-1.875,-2.6875,1.1100000143051147,3.049999952316284,9.25,0.9735107421875,0.14697265625,-0.0816650390625,-0.15478515625,100608.7578125,25.022232055664062,45197.0
1.1699999570846558,2.990000009536743,9.180000305175781,-28.875,-17.875,-45.375,0.375,-1.625,-5.0625,1.1100000143051147,3.049999952316284,9.25,0.97314453125,0.1470947265625,-0.08184814453125,-0.15716552734375,100608.6640625,25.024791717529297,45237.0
1.090000033378601,3.0199999809265137,9.229999542236328,-29.6875,-17.875,-43.75,0.8125,-0.9375,-6.6875,1.100000023841858,3.059999942779541,9.239999771118164,0.97265625,0.14752197265625,-0.0819091796875,-0.1595458984375,100608.8828125,25.02499008178711,45277.0
1.100000023841858,3.0899999141693115,9.229999542236328,-29.6875,-18.25,-43.75,0.4375,-0.875,-8.0,1.090000033378601,3.069999933242798,9.239999771118164,0.97216796875,0.147705078125,-0.08160400390625,-0.162353515625,100608.8671875,25.025135040283203,45317.0
1.0,2.990000009536743,9.239999771118164,-29.6875,-17.1875,-42.5625,-0.5625,-0.5625,-9.125,1.0800000429153442,3.069999933242798,9.239999771118164,0.9718017578125,0.14788818359375,-0.0814208984375,-0.1646728515625,100608.6484375,25.025243759155273,45357.0
0.9900000095367432,3.009999990463257,9.199999809265137,-29.6875,-17.1875,-42.5625,-0.5625,-1.125,-9.25,1.059999942779541,3.0799999237060547,9.239999771118164,0.97125244140625,0.14794921875,-0.08123779296875,-0.167724609375,100608.578125,25.02706527709961,45397.0
0.9700000286102295,3.0,9.279999732971191,-28.875,-18.25,-43.75,-0.4375,-2.3125,-8.5625,1.0499999523162842,3.0799999237060547,9.239999771118164,0.9705810546875,0.1480712890625,-0.0816650390625,-0.17120361328125,100608.5546875,25.029571533203125,45437.0
0.9599999785423279,3.130000114440918,9.1899995803833,-30.375,-19.0,-44.5,-0.5,-2.5625,-7.5,1.0499999523162842,3.0899999141693115,9.239999771118164,0.97027587890625,0.14794921875,-0.08203125,-0.17315673828125,100608.703125,25.02800178527832,45477.0
0.9599999785423279,3.119999885559082,9.25,-28.875,-19.0,-44.1875,-1.625,-3.375,-7.4375,1.059999942779541,3.0899999141693115,9.239999771118164,0.96978759765625,0.1473388671875,-0.0826416015625,-0.1759033203125,100608.375,25.026811599731445,45517.0
0.9800000190734863,3.0899999141693115,9.319999694824219,-28.5625,-18.1875,-44.1875,-2.3125,-4.25,-9.0625,1.059999942779541,3.0799999237060547,9.239999771118164,0.96923828125,0.14654541015625,-0.08349609375,-0.1793212890625,100607.9453125,25.027082443237305,45557.0
1.1299999952316284,3.109999895095825,9.3100004196167,-28.5625,-18.1875,-44.1875,-3.4375,-5.25,-12.125,1.0700000524520874,3.069999933242798,9.25,0.968505859375,0.1453857421875,-0.08428955078125,-0.18377685546875,100607.7265625,25.029590606689453,45597.0
1.190000057220459,3.2300000190734863,9.430000305175781,-29.1875,-18.5625,-45.0,-4.875,-4.6875,-14.9375,1.0700000524520874,3.049999952316284,9.25,0.9676513671875,0.14373779296875,-0.08477783203125,-0.189208984375,100607.8828125,25.031465530395508,45637.0
1.2400000095367432,3.1700000762939453,9.300000190734863,-28.5,-19.6875,-45.375,-8.75,-5.0625,-17.6875,1.0700000524520874,3.0199999809265137,9.260000228881836,0.966796875,0.1409912109375,-0.0849609375,-0.195556640625,100607.4765625,25.031158447265625,45677.0
1.3200000524520874,2.9100000858306885,9.449999809265137,-29.5625,-19.75,-44.375,-8.5625,-3.75,-18.5,1.059999942779541,2.9700000286102295,9.279999732971191,0.9658203125,0.13861083984375,-0.0845947265625,-0.20196533203125,100608.09375,25.031482696533203,45717.0
0.8899999856948853,3.2300000190734863,9.390000343322754,-29.5625,-19.25,-44.5,-9.625,-1.125,-17.1875,1.0299999713897705,2.930000066757202,9.289999961853027,0.965087890625,0.13555908203125,-0.08349609375,-0.20794677734375,100608.40625,25.032312393188477,45757.0
0.6800000071525574,2.640000104904175,9.270000457763672,-29.5625,-19.25,-44.5,-16.6875,-4.25,-19.0,1.0199999809265137,2.859999895095825,9.319999694824219,0.96429443359375,0.130615234375,-0.08306884765625,-0.21502685546875,100607.609375,25.031789779663086,45797.0
0.7200000286102295,2.630000114440918,9.279999732971191,-27.75,-20.0,-43.75,-11.8125,-8.875,-22.375,1.0199999809265137,2.7799999713897705,9.34000015258789,0.96282958984375,0.12677001953125,-0.084228515625,-0.22314453125,100608.15625,25.03485679626465,45837.0
0.949999988079071,2.7799999713897705,9.260000228881836,-28.25,-20.0625,-44.0625,-10.875,-12.3125,-25.875,1.0399999618530273,2.7300000190734863,9.350000381469727,0.9609375,0.123046875,-0.086181640625,-0.23260498046875,100607.78125,25.033105850219727,45877.0
1.2000000476837158,2.7300000190734863,9.210000038146973,-30.1875,-19.6875,-44.875,-13.4375,-13.25,-28.8125,1.0700000524520874,2.680000066757202,9.369999885559082,0.95880126953125,0.1182861328125,-0.08807373046875,-0.242919921875,100607.5703125,25.032384872436523,45917.0
1.4199999570846558,2.4100000858306885,9.140000343322754,-30.375,-19.5,-44.5,-16.375,-8.5625,-29.1875,1.090000033378601,2.5999999046325684,9.390000343322754,0.95672607421875,0.1134033203125,-0.0880126953125,-0.25311279296875,100607.6171875,25.034133911132812,45957.0
1.0499999523162842,2.2899999618530273,9.140000343322754,-30.375,-19.5,-44.5,-12.8125,-1.375,-29.8125,1.059999942779541,2.5299999713897705,9.40999984741211,0.9544677734375,0.11029052734375,-0.08612060546875,-0.26336669921875,100607.5859375,25.03489112854004,45997.0
0.5400000214576721,2.4200000762939453,9.399999618530273,-30.0,-19.25,-43.875,-10.5625,-0.9375,-34.75,1.0099999904632568,2.4800000190734863,9.430000305175781,0.95159912109375,0.10760498046875,-0.0843505859375,-0.275146484375,100607.4140625,25.036605834960938,46037.0
0.36000001430511475,2.3499999046325684,9.460000038146973,-28.0625,-19.6875,-44.375,-13.75,-8.5,-40.125,0.9800000190734863,2.430000066757202,9.4399995803833,0.947998046875,0.10345458984375,-0.0845947265625,-0.28887939453125,100607.3984375,25.036731719970703,46077.0
1.0,2.200000047683716,9.390000343322754,-27.75,-19.5,-44.6875,-14.75,-12.25,-42.0,0.9900000095367432,2.359999895095825,9.460000038146973,0.9439697265625,0.0987548828125,-0.08544921875,-0.30303955078125,100607.7109375,25.037399291992188,46117.0
1.0099999904632568,2.069999933242798,9.350000381469727,-26.75,-20.25,-45.1875,-14.1875,-7.8125,-39.25,0.9900000095367432,2.299999952316284,9.479999542236328,0.94024658203125,0.094482421875,-0.08489990234375,-0.31597900390625,100608.1484375,25.038480758666992,46157.0
0.7900000214576721,1.940000057220459,9.529999732971191,-26.75,-20.25,-45.1875,-15.125,-3.0625,-33.625,0.9599999785423279,2.2200000286102295,9.5,0.9371337890625,0.0902099609375,-0.082763671875,-0.326904296875,100608.1640625,25.03929328918457,46197.0
0.44999998807907104,1.4600000381469727,10.029999732971191,-26.5,-20.5,-45.5625,-12.25,2.5,-25.5625,0.9100000262260437,2.1500000953674316,9.520000457763672,0.93487548828125,0.08770751953125,-0.08001708984375,-0.3345947265625,100607.6015625,25.03875160217285,46237.0
-0.05000000074505806,2.0799999237060547,9.739999771118164,-25.5625,-21.1875,-46.0,-7.9375,3.1875,-13.6875,0.8600000143051147,2.109999895095825,9.529999732971191,0.9337158203125,0.08544921875,-0.077880859375,-0.33880615234375,100607.53125,25.039491653442383,46277.0
-0.11999999731779099,2.2200000286102295,9.8100004196167,-25.875,-22.0625,-45.6875,-16.5625,-2.25,-5.5,0.8500000238418579,2.0299999713897705,9.550000190734863,0.93359375,0.08001708984375,-0.0753173828125,-0.34112548828125,100607.8671875,25.04120445251465,46317.0
0.17000000178813934,1.7599999904632568,9.8100004196167,-25.875,-22.0625,-45.6875,-27.375,-6.0625,-2.75,0.8299999833106995,1.8799999952316284,9.579999923706055,0.93377685546875,0.0714111328125,-0.07293701171875,-0.34295654296875,100607.875,25.040771484375,46357.0
0.6800000071525574,1.600000023841858,9.680000305175781,-25.6875,-22.0,-45.6875,-26.6875,-1.8125,-3.0625,0.8600000143051147,1.7100000381469727,9.609999656677246,0.93402099609375,0.06268310546875,-0.0699462890625,-0.3446044921875,100607.734375,25.041006088256836,46397.0
0.5400000214576721,1.149999976158142,9.550000190734863,-25.75,-21.875,-45.875,-28.125,5.8125,-2.375,0.8399999737739563,1.5199999809265137,9.649999618530273,0.9344482421875,0.05499267578125,-0.06488037109375,-0.34588623046875,100607.25,25.04060935974121,46437.0
-0.019999999552965164,0.9300000071525574,9.729999542236328,-27.0,-20.0,-46.0625,-19.6875,7.8125,-3.5625,0.7799999713897705,1.3799999952316284,9.670000076293945,0.93450927734375,0.04986572265625,-0.059814453125,-0.3472900390625,100607.203125,25.039743423461914,46477.0
-0.2199999988079071,0.8500000238418579,9.550000190734863,-25.5625,-19.0625,-46.375,-18.875,9.9375,-4.9375,0.6899999976158142,1.25,9.699999809265137,0.93414306640625,0.04534912109375,-0.05291748046875,-0.3499755859375,100607.1328125,25.03907585144043,46517.0
-0.4099999964237213,0.4000000059604645,9.789999961853027,-25.5625,-19.0625,-46.375,-18.5625,8.6875,-14.6875,0.6399999856948853,1.159999966621399,9.710000038146973,0.9320068359375,0.0418701171875,-0.048583984375,-0.356689453125,100607.4609375,25.040321350097656,46557.0
-0.33000001311302185,1.2100000381469727,10.229999542236328,-25.6875,-18.25,-46.6875,-12.75,1.3125,-33.875,0.5699999928474426,1.0700000524520874,9.729999542236328,0.92791748046875,0.0382080078125,-0.0458984375,-0.367919921875,100607.75,25.04183578491211,46597.0
0.0,1.6399999856948853,10.170000076293945,-25.6875,-17.1875,-47.375,-24.0,-0.1875,-41.4375,0.5400000214576721,0.9599999785423279,9.739999771118164,0.9229736328125,0.03125,-0.04248046875,-0.38116455078125,100607.3984375,25.040645599365234,46637.0
0.5400000214576721,0.019999999552965164,10.529999732971191,-23.75,-18.5625,-48.6875,-19.3125,-0.6875,-38.375,0.5199999809265137,0.8100000023841858,9.75,0.9180908203125,0.02569580078125,-0.04022216796875,-0.3934326171875,100607.375,25.04033851623535,46677.0
0.3199999928474426,0.6299999952316284,10.600000381469727,-24.0,-19.0625,-47.75,-15.5,-7.6875,-39.625,0.5299999713897705,0.75,9.760000228881836,0.91229248046875,0.0198974609375,-0.0413818359375,-0.40692138671875,100606.796875,25.0395450592041,46717.0
1.2000000476837158,0.5099999904632568,9.760000228881836,-24.0,-19.0625,-47.75,-15.8125,-14.9375,-47.4375,0.6000000238418579,0.6600000262260437,9.760000228881836,0.90521240234375,0.013916015625,-0.0435791015625,-0.42254638671875,100606.5390625,25.039508819580078,46757.0
1.4600000381469727,0.8700000047683716,8.800000190734863,-24.5,-18.25,-48.5625,-18.6875,-12.5625,-55.1875,0.6899999976158142,0.5600000023841858,9.760000228881836,0.89697265625,0.00677490234375,-0.04412841796875,-0.4398193359375,100606.6015625,25.03891372680664,46797.0
0.9100000262260437,0.1899999976158142,9.130000114440918,-24.5,-17.5,-48.6875,-27.0,-11.4375,-57.9375,0.7400000095367432,0.41999998688697815,9.760000228881836,0.88800048828125,-0.00311279296875,-0.0439453125,-0.45770263671875,100606.3984375,25.037309646606445,46837.0
1.1100000143051147,-1.0199999809265137,9.649999618530273,-23.5,-18.875,-49.1875,-27.3125,-17.625,-54.5,0.8399999737739563,0.27000001072883606,9.760000228881836,0.87982177734375,-0.01171875,-0.04656982421875,-0.47283935546875,100606.5,25.03494644165039,46877.0
1.440000057220459,-0.47999998927116394,9.8100004196167,-24.0,-18.5625,-49.875,-12.4375,-21.875,-42.6875,0.9399999976158142,0.20999999344348907,9.75,0.87457275390625,-0.01666259765625,-0.05029296875,-0.48199462890625,100607.109375,25.033756256103516,46917.0
2.119999885559082,-0.8799999952316284,9.6899995803833,-24.0,-18.5625,-49.875,-10.0,-23.75,-37.5625,1.090000033378601,0.1599999964237213,9.739999771118164,0.86798095703125,-0.02215576171875,-0.055908203125,-0.492919921875,100606.75,25.03171730041504,46957.0
2.509999990463257,-0.2800000011920929,9.270000457763672,-24.5625,-18.875,-49.1875,-1.6875,-15.625,-33.0625,1.2300000190734863,0.17000000178813934,9.720000267028809,0.8609619140625,-0.02423095703125,-0.06072998046875,-0.5045166015625,100606.7265625,25.03191566467285,46997.0
2.0899999141693115,0.0,9.489999771118164,-25.25,-20.5625,-48.5,1.5625,-4.375,-28.25,1.2699999809265137,0.20000000298023224,9.720000267028809,0.85614013671875,-0.0244140625,-0.0616455078125,-0.51251220703125,100606.9296875,25.029752731323242,47037.0
1.600000023841858,0.36000001430511475,9.5,-25.5625,-19.875,-48.375,-6.5625,-2.5625,-27.0625,1.2799999713897705,0.1899999976158142,9.710000038146973,0.85125732421875,-0.02783203125,-0.06109619140625,-0.52044677734375,100607.125,25.025819778442383,47077.0
1.690000057220459,-0.4699999988079071,9.550000190734863,-24.5625,-19.6875,-49.25,-15.0625,-6.625,-26.0625,1.309999942779541,0.12999999523162842,9.710000038146973,0.84759521484375,-0.03155517578125,-0.06085205078125,-0.52618408203125,100607.0625,25.02288055419922,47117.0
1.9500000476837158,-0.6399999856948853,9.430000305175781,-24.5625,-19.6875,-49.25,-13.1875,-7.5,-25.0,1.3600000143051147,0.07000000029802322,9.710000038146973,0.8427734375,-0.03582763671875,-0.0609130859375,-0.53363037109375,100607.3203125,25.024124145507812,47157.0
1.899999976158142,-0.27000001072883606,9.420000076293945,-24.375,-19.6875,-48.5,-8.5,-4.625,-28.875,1.3899999856948853,0.029999999329447746,9.699999809265137,0.83709716796875,-0.038818359375,-0.06097412109375,-0.542236328125,100606.875,25.024486541748047,47197.0
2.130000114440918,-0.029999999329447746,8.979999542236328,-24.6875,-20.0625,-48.875,-15.125,-3.4375,-33.9375,1.4199999570846558,-0.009999999776482582,9.699999809265137,0.83056640625,-0.0433349609375,-0.05914306640625,-0.55206298828125,100607.53125,25.02764129638672,47237.0
1.7200000286102295,-0.33000001311302185,9.199999809265137,-24.375,-20.25,-48.1875,-26.3125,-0.875,-32.875,1.4299999475479126,-0.12999999523162842,9.6899995803833,0.822509765625,-0.05279541015625,-0.0535888671875,-0.56378173828125,100607.8828125,25.03002166748047,47277.0
1.6699999570846558,-1.2899999618530273,9.670000076293945,-23.6875,-19.375,-48.875,-32.375,-3.0625,-27.125,1.4500000476837158,-0.30000001192092896,9.6899995803833,0.81842041015625,-0.05950927734375,-0.05029296875,-0.5693359375,100607.7421875,25.032367706298828,47317.0
2.0999999046325684,-1.6299999952316284,10.020000457763672,-23.6875,-19.375,-48.875,-25.375,-5.375,-19.375,1.4900000095367432,-0.46000000834465027,9.680000305175781,0.814208984375,-0.06683349609375,-0.0474853515625,-0.57476806640625,100607.890625,25.035287857055664,47357.0
2.430000066757202,-1.5800000429153442,9.979999542236328,-23.5625,-19.0,-49.375,-14.5625,-2.8125,-11.8125,1.5199999809265137,-0.5699999928474426,9.670000076293945,0.81170654296875,-0.07080078125,-0.045654296875,-0.57794189453125,100607.7109375,25.03631591796875,47397.0
2.3299999237060547,-0.9100000262260437,9.65999984741211,-22.1875,-18.875,-48.875,-10.5625,4.1875,-4.75,1.5099999904632568,-0.6399999856948853,9.65999984741211,0.81072998046875,-0.0728759765625,-0.042236328125,-0.57928466796875,100607.84375,25.036514282226562,47437.0
1.9199999570846558,-1.159999966621399,9.84000015258789,-23.0,-17.75,-48.875,-14.3125,8.0625,1.8125,1.4700000286102295,-0.7200000286102295,9.65999984741211,0.81097412109375,-0.0751953125,-0.03717041015625,-0.57904052734375,100607.21875,25.036678314208984,47477.0
1.690000057220459,-1.3200000524520874,9.710000038146973,-22.5625,-17.75,-48.5,-13.1875,10.375,5.0625,1.409999966621399,-0.8199999928474426,9.65999984741211,0.81170654296875,-0.07733154296875,-0.03173828125,-0.57806396484375,100607.28125,25.037363052368164,47517.0
1.0099999904632568,-1.6699999570846558,10.300000190734863,-22.5625,-17.75,-48.5,-9.0,9.0625,4.6875,1.340000033378601,-0.8999999761581421,9.670000076293945,0.8123779296875,-0.07806396484375,-0.02777099609375,-0.57720947265625,100607.328125,25.03902244567871,47557.0
1.0800000429153442,-1.809999942779541,10.710000038146973,-23.0,-15.875,-49.5,-0.875,1.125,1.1875,1.309999942779541,-0.9300000071525574,9.670000076293945,0.81256103515625,-0.077880859375,-0.0277099609375,-0.57696533203125,100607.6484375,25.041439056396484,47597.0
1.2799999713897705,-1.1100000143051147,9.4399995803833,-21.5,-16.5625,-49.1875,7.625,-3.6875,-1.3125,1.3300000429153442,-0.8999999761581421,9.670000076293945,0.8123779296875,-0.07647705078125,-0.03021240234375,-0.57733154296875,100607.9609375,25.04151153564453,47637.0
1.309999942779541,-0.8299999833106995,9.5600004196167,-22.5625,-16.1875,-49.5,6.375,-3.375,-5.1875,1.3600000143051147,-0.8500000238418579,9.670000076293945,0.811279296875,-0.07562255859375,-0.03228759765625,-0.578857421875,100607.8359375,25.042142868041992,47677.0
1.5,-1.3700000047683716,9.640000343322754,-23.0,-16.0625,-48.375,1.8125,-2.6875,-11.5625,1.3799999952316284,-0.8199999928474426,9.670000076293945,0.80963134765625,-0.075439453125,-0.03338623046875,-0.58111572265625,100608.15625,25.045495986938477,47717.0
1.3899999856948853,-1.350000023841858,10.050000190734863,-23.0,-16.0625,-48.375,10.4375,3.0,-12.375,1.3799999952316284,-0.7699999809265137,9.670000076293945,0.80743408203125,-0.0723876953125,-0.034912109375,-0.58447265625,100607.8046875,25.046289443969727,47757.0
1.0700000524520874,-1.1100000143051147,9.640000343322754,-22.1875,-17.5,-49.0625,18.1875,3.5,-9.0,1.3600000143051147,-0.6499999761581421,9.680000305175781,0.80596923828125,-0.0667724609375,-0.03759765625,-0.58697509765625,100606.921875,25.046884536743164,47797.0
1.090000033378601,0.27000001072883606,9.140000343322754,-22.5,-17.875,-49.0625,22.875,-0.625,-8.5625,1.3600000143051147,-0.5,9.6899995803833,0.80474853515625,-0.060546875,-0.042236328125,-0.5889892578125,100607.3359375,25.04791259765625,47837.0
1.350000023841858,0.20999999344348907,9.039999961853027,-22.5625,-18.1875,-47.5625,10.3125,-1.0625,-9.6875,1.3700000047683716,-0.38999998569488525,9.699999809265137,0.8031005859375,-0.05731201171875,-0.045166015625,-0.59136962890625,100607.5390625,25.04924774169922,47877.0
1.059999942779541,0.0,9.010000228881836,-21.375,-18.875,-47.5,-1.0625,3.4375,-7.75,1.3600000143051147,-0.3499999940395355,9.699999809265137,0.801513671875,-0.05596923828125,-0.044921875,-0.59368896484375,100607.6484375,25.05083465576172,47917.0
0.8399999737739563,-0.8399999737739563,9.270000457763672,-21.375,-18.875,-47.5,-6.4375,3.625,-5.75,1.340000033378601,-0.3799999952316284,9.699999809265137,0.80023193359375,-0.0567626953125,-0.0428466796875,-0.595458984375,100607.9453125,25.052602767944336,47957.0
0.5,-1.190000057220459,9.399999618530273,-21.375,-18.875,-46.6875,-1.0,0.4375,-4.5625,1.3200000524520874,-0.4000000059604645,9.699999809265137,0.799072265625,-0.05718994140625,-0.0426025390625,-0.59698486328125,100608.2421875,25.053340911865234,47997.0
0.4699999988079071,-0.8899999856948853,9.569999694824219,-21.375,-18.5625,-45.5625,2.1875,-5.25,-2.4375,1.3200000524520874,-0.4000000059604645,9.699999809265137,0.79876708984375,-0.0574951171875,-0.04254150390625,-0.59735107421875,100607.75,25.05447769165039,48037.0
0.9800000190734863,-0.6499999761581421,9.619999885559082,-21.25,-18.5625,-47.0625,-1.125,-10.3125,-1.0,1.3799999952316284,-0.4000000059604645,9.6899995803833,0.79840087890625,-0.05963134765625,-0.04498291015625,-0.59747314453125,100607.2109375,25.052457809448242,48077.0
1.6100000143051147,-1.0499999523162842,9.899999618530273,-21.25,-18.5625,-47.0625,-3.75,-4.9375,-1.3125,1.4299999475479126,-0.41999998688697815,9.6899995803833,0.7979736328125,-0.061767578125,-0.0458984375,-0.59771728515625,100607.328125,25.053810119628906,48117.0
1.4500000476837158,-1.1299999952316284,9.789999961853027,-22.0625,-19.375,-45.0,2.9375,3.125,-1.125,1.4299999475479126,-0.4300000071525574,9.6899995803833,0.7978515625,-0.061279296875,-0.04534912109375,-0.5980224609375,100607.953125,25.056570053100586,48157.0
1.2899999618530273,-0.46000000834465027,10.1899995803833,-22.0625,-18.25,-45.875,10.125,6.0625,3.75,1.399999976158142,-0.3799999952316284,9.6899995803833,0.7987060546875,-0.0576171875,-0.04559326171875,-0.59716796875,100607.953125,25.056318283081055,48197.0
1.2799999713897705,-0.03999999910593033,10.9399995803833,-21.6875,-19.0,-46.25,12.1875,8.75,14.875,1.340000033378601,-0.3100000023841858,9.699999809265137,0.802001953125,-0.0531005859375,-0.04534912109375,-0.59326171875,100607.4375,25.053829193115234,48237.0
1.5399999618530273,0.009999999776482582,10.569999694824219,-22.0625,-18.25,-46.25,5.3125,7.3125,18.6875,1.2899999618530273,-0.28999999165534973,9.710000038146973,0.805908203125,-0.0504150390625,-0.044189453125,-0.58819580078125,100607.390625,25.054838180541992,48277.0
1.3700000047683716,0.09000000357627869,9.739999771118164,-22.0625,-18.25,-46.25,2.8125,5.75,14.0625,1.25,-0.2800000011920929,9.720000267028809,0.8092041015625,-0.048583984375,-0.04266357421875,-0.58392333984375,100607.5703125,25.0567684173584,48317.0
1.3799999952316284,-0.4300000071525574,10.359999656677246,-22.375,-19.0,-44.6875,2.1875,1.5625,9.5625,1.2200000286102295,-0.27000001072883606,9.720000267028809,0.8106689453125,-0.048095703125,-0.04248046875,-0.58197021484375,100607.0546875,25.059925079345703,48357.0
1.5499999523162842,-0.27000001072883606,9.930000305175781,-21.5625,-18.25,-44.25,-1.5625,-0.75,9.875,1.2200000286102295,-0.2800000011920929,9.720000267028809,0.81256103515625,-0.04864501953125,-0.04217529296875,-0.57928466796875,100606.671875,25.058841705322266,48397.0
1.590000033378601,-0.7799999713897705,9.970000267028809,-22.0,-19.0,-45.5,-3.375,-1.25,10.5,1.2200000286102295,-0.3199999928474426,9.720000267028809,0.8145751953125,-0.04986572265625,-0.04156494140625,-0.576416015625,100606.7109375,25.058609008789062,48437.0
1.4600000381469727,-0.38999998569488525,9.050000190734863,-22.6875,-17.875,-45.0625,3.3125,-1.9375,9.875,1.2300000190734863,-0.3100000023841858,9.720000267028809,0.81646728515625,-0.04986572265625,-0.0423583984375,-0.5736083984375,100606.6640625,25.059581756591797,48477.0
1.659999966621399,-1.2300000190734863,8.720000267028809,-22.6875,-17.875,-45.0625,1.8125,-0.5625,9.4375,1.2400000095367432,-0.3199999928474426,9.720000267028809,0.81890869140625,-0.04803466796875,-0.04315185546875,-0.57025146484375,100606.5546875,25.060897827148438,48517.0
1.3700000047683716,-0.4300000071525574,8.600000381469727,-22.6875,-18.25,-44.6875,11.8125,4.0625,8.5,1.2100000381469727,-0.25,9.720000267028809,0.8203125,-0.045166015625,-0.0439453125,-0.56842041015625,100606.859375,25.0636043548584,48557.0
1.309999942779541,0.05999999865889549,8.789999961853027,-22.6875,-18.0,-44.25,2.75,1.5625,2.875,1.190000057220459,-0.20999999344348907,9.729999542236328,0.82110595703125,-0.04345703125,-0.044189453125,-0.5673828125,100607.2421875,25.062755584716797,48597.0
1.4199999570846558,-0.3799999952316284,9.0600004196167,-23.375,-18.0,-43.5,4.125,0.6875,-1.5,1.190000057220459,-0.18000000715255737,9.729999542236328,0.82073974609375,-0.04241943359375,-0.0447998046875,-0.56793212890625,100607.109375,25.061548233032227,48637.0
1.6699999570846558,-0.25,8.9399995803833,-22.6875,-17.5625,-42.6875,1.5,-0.6875,-6.75,1.2000000476837158,-0.17000000178813934,9.729999542236328,0.8193359375,-0.042236328125,-0.0455322265625,-0.57000732421875,100607.3515625,25.062358856201172,48677.0
1.809999942779541,-0.20999999344348907,9.399999618530273,-22.6875,-17.5625,-42.6875,0.375,1.8125,-12.3125,1.190000057220459,-0.1599999964237213,9.729999542236328,0.81689453125,-0.04168701171875,-0.04522705078125,-0.57354736328125,100607.1953125,25.060087203979492,48717.0
1.4900000095367432,-0.6800000071525574,10.020000457763672,-23.375,-18.0,-43.5,-0.8125,0.3125,-15.1875,1.190000057220459,-0.15000000596046448,9.729999542236328,0.813232421875,-0.041259765625,-0.04608154296875,-0.57867431640625,100607.6796875,25.059545516967773,48757.0
1.4500000476837158,-0.09000000357627869,10.279999732971191,-22.0,-17.0,-43.0625,3.875,-4.75,-14.5,1.2200000286102295,-0.10999999940395355,9.720000267028809,0.810546875,-0.04193115234375,-0.0484619140625,-0.58221435546875,100607.71875,25.0579776763916,48797.0
1.7999999523162842,-0.03999999910593033,9.859999656677246,-22.25,-18.0625,-42.5625,-2.375,-8.875,-11.1875,1.2699999809265137,-0.10999999940395355,9.720000267028809,0.80841064453125,-0.04376220703125,-0.05047607421875,-0.58477783203125,100608.2890625,25.057382583618164,48837.0
1.9700000286102295,-0.4000000059604645,11.100000381469727,-21.5625,-17.375,-43.375,-0.5,-6.125,-8.125,1.309999942779541,-0.10999999940395355,9.710000038146973,0.80731201171875,-0.04400634765625,-0.05194091796875,-0.586181640625,100608.25,25.056930541992188,48877.0
1.5800000429153442,-0.10000000149011612,11.6899995803833,-21.5625,-17.375,-43.375,3.3125,-3.375,-4.6875,1.3300000429153442,-0.07999999821186066,9.710000038146973,0.8065185546875,-0.04345703125,-0.05389404296875,-0.58709716796875,100608.53125,25.059473037719727,48917.0
1.0199999809265137,1.1699999570846558,9.4399995803833,-24.1875,-17.6875,-42.0625,2.6875,-7.0625,-0.625,1.3700000047683716,-0.05000000074505806,9.699999809265137,0.80633544921875,-0.04522705078125,-0.0557861328125,-0.58709716796875,100608.3828125,25.060232162475586,48957.0
1.5299999713897705,-0.07000000029802322,10.4399995803833,-23.0,-18.0625,-41.75,-19.0,-7.0,3.6875,1.4199999570846558,-0.11999999731779099,9.699999809265137,0.80706787109375,-0.0516357421875,-0.0537109375,-0.58575439453125,100608.453125,25.0631160736084,48997.0
1.2799999713897705,-0.38999998569488525,9.489999771118164,-24.375,-17.0,-41.25,-1.5625,-0.125,5.75,1.440000057220459,-0.20000000298023224,9.6899995803833,0.80780029296875,-0.0516357421875,-0.05364990234375,-0.584716796875,100608.5546875,25.066993713378906,49037.0
1.3600000143051147,-0.23000000417232513,10.210000038146973,-23.25,-17.0,-40.5625,4.0625,2.0,2.5625,1.4299999475479126,-0.1899999976158142,9.6899995803833,0.80853271484375,-0.050048828125,-0.0538330078125,-0.5838623046875,100608.6484375,25.069339752197266,49077.0
1.3200000524520874,-0.05999999865889549,9.8100004196167,-23.25,-17.0,-40.5625,4.5,3.3125,5.6875,1.409999966621399,-0.1599999964237213,9.699999809265137,0.80987548828125,-0.04803466796875,-0.05377197265625,-0.5821533203125,100607.375,25.06475830078125,49117.0
1.2200000286102295,-0.10000000149011612,9.210000038146973,-24.1875,-16.5625,-40.5625,6.25,4.5625,8.375,1.3799999952316284,-0.12999999523162842,9.699999809265137,0.8116455078125,-0.04541015625,-0.0537109375,-0.579833984375,100608.0234375,25.065353393554688,49157.0
1.100000023841858,0.07000000029802322,8.930000305175781,-24.1875,-15.875,-41.0625,9.5625,4.75,6.4375,1.350000023841858,-0.07999999821186066,9.710000038146973,0.8131103515625,-0.0419921875,-0.05413818359375,-0.57806396484375,100607.5859375,25.06232261657715,49197.0
0.949999988079071,0.38999998569488525,8.84000015258789,-22.6875,-16.25,-40.5625,5.75,4.6875,4.875,1.3200000524520874,-0.029999999329447746,9.710000038146973,0.81414794921875,-0.0399169921875,-0.05377197265625,-0.5767822265625,100607.390625,25.0623779296875,49237.0
0.8999999761581421,0.17000000178813934,8.8100004196167,-24.1875,-15.875,-41.875,-2.5625,3.0625,2.625,1.2899999618530273,-0.029999999329447746,9.720000267028809,0.81463623046875,-0.03997802734375,-0.05230712890625,-0.57623291015625,100607.0390625,25.06125831604004,49277.0
0.8600000143051147,-0.5,8.859999656677246,-24.1875,-15.875,-41.875,-5.8125,0.9375,0.5625,1.2799999713897705,-0.05999999865889549,9.720000267028809,0.81475830078125,-0.041259765625,-0.05096435546875,-0.5760498046875,100607.0859375,25.062719345092773,49317.0
0.6800000071525574,-0.7699999809265137,8.890000343322754,-23.75,-16.25,-41.6875,-3.1875,0.5625,4.5,1.2699999809265137,-0.09000000357627869,9.720000267028809,0.81573486328125,-0.04193115234375,-0.05035400390625,-0.57464599609375,100606.9375,25.064973831176758,49357.0
0.550000011920929,-0.6299999952316284,9.229999542236328,-24.1875,-15.1875,-41.0,4.0,-1.5,8.5625,1.2799999713897705,-0.09000000357627869,9.720000267028809,0.81744384765625,-0.04132080078125,-0.0516357421875,-0.5721435546875,100606.859375,25.06609344482422,49397.0
0.7699999809265137,-0.3499999940395355,9.84000015258789,-24.1875,-14.75,-39.375,2.875,-4.0,9.0,1.2999999523162842,-0.07000000029802322,9.710000038146973,0.819091796875,-0.04144287109375,-0.05322265625,-0.5697021484375,100607.625,25.0674991607666,49437.0
1.0199999809265137,-0.20000000298023224,10.039999961853027,-23.375,-14.75,-41.0,1.4375,-3.3125,6.5625,1.3200000524520874,-0.05999999865889549,9.710000038146973,0.8203125,-0.0418701171875,-0.05413818359375,-0.56781005859375,100607.4921875,25.06740951538086,49477.0
0.9399999976158142,0.029999999329447746,9.920000076293945,-23.375,-14.75,-41.0,-0.875,-0.75,7.0,1.3300000429153442,-0.07000000029802322,9.710000038146973,0.82177734375,-0.04217529296875,-0.0535888671875,-0.565673828125,100607.953125,25.069644927978516,49517.0
1.2100000381469727,-0.7099999785423279,12.140000343322754,-24.5,-14.75,-39.0,-2.1875,-0.5625,11.9375,1.3300000429153442,-0.09000000357627869,9.710000038146973,0.82427978515625,-0.04248046875,-0.0533447265625,-0.56207275390625,100608.15625,25.07074546813965,49557.0
1.5700000524520874,0.1899999976158142,11.569999694824219,-24.25,-14.75,-41.25,5.125,0.6875,17.0,1.3200000524520874,-0.07999999821186066,9.710000038146973,0.82757568359375,-0.0413818359375,-0.0537109375,-0.55718994140625,100608.1015625,25.07099723815918,49597.0
1.2200000286102295,0.23999999463558197,11.180000305175781,-24.25,-14.5,-40.0625,3.6875,3.625,16.8125,1.309999942779541,-0.07000000029802322,9.710000038146973,0.8306884765625,-0.0401611328125,-0.05340576171875,-0.552734375,100607.84375,25.071178436279297,49637.0
1.409999966621399,-0.03999999910593033,10.899999618530273,-25.25,-13.375,-40.0625,-1.125,-1.5,9.9375,1.2999999523162842,-0.07999999821186066,9.710000038146973,0.83233642578125,-0.04107666015625,-0.05364990234375,-0.55010986328125,100608.390625,25.0718994140625,49677.0
1.600000023841858,-0.1599999964237213,10.0600004196167,-25.25,-13.375,-40.0625,-2.125,-6.4375,5.25,1.3300000429153442,-0.10000000149011612,9.710000038146973,0.83319091796875,-0.0430908203125,-0.05487060546875,-0.548583984375,100607.953125,25.071287155151367,49717.0
1.559999942779541,-0.30000001192092896,10.149999618530273,-25.25,-13.375,-39.5,-5.8125,-6.125,4.6875,1.3700000047683716,-0.12999999523162842,9.699999809265137,0.83380126953125,-0.0457763671875,-0.0557861328125,-0.54730224609375,100607.3515625,25.0690860748291,49757.0
1.590000033378601,-0.28999999165534973,9.210000038146973,-25.75,-13.5,-39.5,-1.3125,-8.8125,2.5625,1.4299999475479126,-0.15000000596046448,9.699999809265137,0.83404541015625,-0.047607421875,-0.05810546875,-0.5465087890625,100607.453125,25.069753646850586,49797.0
1.5800000429153442,-0.009999999776482582,8.710000038146973,-26.5,-12.6875,-39.875,4.5,-8.0625,0.8125,1.4800000190734863,-0.14000000059604645,9.6899995803833,0.83404541015625,-0.048095703125,-0.06097412109375,-0.54620361328125,100607.5390625,25.06968116760254,49837.0
1.7999999523162842,0.5600000023841858,8.5600004196167,-26.5,-12.6875,-39.875,-3.375,-6.4375,0.75,1.5299999713897705,-0.12999999523162842,9.680000305175781,0.8341064453125,-0.05035400390625,-0.06170654296875,-0.5457763671875,100607.5703125,25.069032669067383,49877.0
1.6100000143051147,0.1599999964237213,8.369999885559082,-26.5625,-12.6875,-39.1875,-10.3125,-0.9375,4.0,1.5499999523162842,-0.1899999976158142,9.680000305175781,0.834716796875,-0.0537109375,-0.05999755859375,-0.5447998046875,100607.7265625,25.070295333862305,49917.0
1.600000023841858,-0.6100000143051147,8.649999618530273,-27.0,-12.375,-39.5625,-11.0625,-4.5625,4.125,1.559999942779541,-0.27000001072883606,9.670000076293945,0.8350830078125,-0.0574951171875,-0.05938720703125,-0.54388427734375,100607.75,25.068923950195312,49957.0
1.7999999523162842,-0.44999998807907104,8.609999656677246,-26.5625,-12.0625,-40.0625,-4.625,-5.75,0.0625,1.600000023841858,-0.3199999928474426,9.65999984741211,0.83477783203125,-0.06005859375,-0.06005859375,-0.5439453125,100607.8984375,25.06847381591797,49997.0
1.9299999475479126,-0.28999999165534973,8.579999923706055,-27.0625,-11.75,-38.875,-7.8125,-5.4375,-2.1875,1.6399999856948853,-0.36000001430511475,9.65999984741211,0.833740234375,-0.0643310546875,-0.06097412109375,-0.54498291015625,100607.8046875,25.068708419799805,50037.0
2.240000009536743,-0.4000000059604645,9.100000381469727,-27.0625,-11.75,-38.875,-12.625,-5.625,-6.1875,1.7000000476837158,-0.4300000071525574,9.640000343322754,0.83172607421875,-0.06915283203125,-0.05999755859375,-0.547607421875,100607.6484375,25.06888771057129,50077.0
2.7200000286102295,-0.949999988079071,9.970000267028809,-27.0625,-11.75,-40.0625,-16.0,-3.0,-15.375,1.7300000190734863,-0.5199999809265137,9.630000114440918,0.8282470703125,-0.07354736328125,-0.05804443359375,-0.55242919921875,100607.5703125,25.069608688354492,50117.0
2.7899999618530273,-0.7599999904632568,9.6899995803833,-27.0625,-10.5625,-39.6875,-13.375,5.0,-21.0,1.7300000190734863,-0.5899999737739563,9.630000114440918,0.82403564453125,-0.07586669921875,-0.05462646484375,-0.55877685546875,100608.09375,25.07015037536621,50157.0
2.319999933242798,-0.9300000071525574,11.670000076293945,-28.1875,-11.0,-40.1875,-12.625,9.1875,-21.9375,1.690000057220459,-0.6499999761581421,9.630000114440918,0.81976318359375,-0.07708740234375,-0.05035400390625,-0.56524658203125,100608.484375,25.070547103881836,50197.0
1.6200000047683716,-0.14000000059604645,10.520000457763672,-26.375,-9.5625,-38.6875,-4.1875,13.6875,-17.8125,1.6399999856948853,-0.6800000071525574,9.640000343322754,0.81671142578125,-0.076416015625,-0.045654296875,-0.57012939453125,100609.09375,25.06968116760254,50237.0
0.6600000262260437,-1.9800000190734863,11.380000114440918,-26.375,-9.5625,-38.6875,-10.625,7.125,-11.0625,1.5700000524520874,-0.7200000286102295,9.649999618530273,0.8148193359375,-0.07696533203125,-0.04412841796875,-0.5728759765625,100608.734375,25.06962776184082,50277.0
1.0,-0.44999998807907104,10.399999618530273,-26.0,-10.25,-40.375,-4.5,-1.875,-5.875,1.5700000524520874,-0.7400000095367432,9.649999618530273,0.8135986328125,-0.0787353515625,-0.0435791015625,-0.574462890625,100608.8515625,25.07015037536621,50317.0
1.440000057220459,-0.550000011920929,10.420000076293945,-25.5625,-9.875,-41.0625,-11.6875,0.5625,-3.9375,1.5800000429153442,-0.7900000214576721,9.640000343322754,0.8125,-0.08209228515625,-0.04083251953125,-0.57574462890625,100609.015625,25.069393157958984,50357.0
1.350000023841858,-0.8799999952316284,9.949999809265137,-25.1875,-9.875,-40.5,-18.1875,3.75,-3.5625,1.559999942779541,-0.8999999761581421,9.630000114440918,0.8114013671875,-0.0853271484375,-0.03656005859375,-0.57708740234375,100608.921875,25.06941032409668,50397.0
1.25,-2.140000104904175,10.380000114440918,-26.0,-9.25,-39.375,-4.875,6.0,-4.5,1.5299999713897705,-0.949999988079071,9.630000114440918,0.8106689453125,-0.08453369140625,-0.035400390625,-0.57830810546875,100608.890625,25.068256378173828,50437.0
1.1299999952316284,-1.0700000524520874,9.279999732971191,-26.0,-9.25,-39.375,6.625,5.625,-7.25,1.5,-0.9100000262260437,9.640000343322754,0.8095703125,-0.081298828125,-0.03546142578125,-0.58026123046875,100608.8671875,25.069717407226562,50477.0
0.8799999952316284,-0.7099999785423279,8.789999961853027,-26.6875,-9.1875,-41.75,10.9375,7.6875,-3.9375,1.4500000476837158,-0.8299999833106995,9.65999984741211,0.80938720703125,-0.07574462890625,-0.0355224609375,-0.581298828125,100609.265625,25.07195472717285,50517.0
0.2800000011920929,-0.3700000047683716,8.5,-26.0,-9.875,-40.25,9.5625,6.125,0.375,1.409999966621399,-0.7599999904632568,9.670000076293945,0.80987548828125,-0.07330322265625,-0.03594970703125,-0.5809326171875,100608.6171875,25.069591522216797,50557.0
0.4000000059604645,-0.30000001192092896,8.260000228881836,-24.75,-9.875,-40.5625,0.9375,-0.8125,3.1875,1.399999976158142,-0.75,9.670000076293945,0.810791015625,-0.0733642578125,-0.034912109375,-0.57965087890625,100608.0234375,25.06782341003418,50597.0
0.4099999964237213,-1.0,8.539999961853027,-24.5,-10.25,-41.0,-5.5625,-4.5625,6.3125,1.3899999856948853,-0.7799999713897705,9.670000076293945,0.81158447265625,-0.0753173828125,-0.03515625,-0.5782470703125,100608.03125,25.067644119262695,50637.0
0.5699999928474426,-1.2100000381469727,8.40999984741211,-24.5,-10.25,-41.0,-2.875,-7.3125,6.375,1.4299999475479126,-0.8100000023841858,9.65999984741211,0.81268310546875,-0.07757568359375,-0.03662109375,-0.57635498046875,100608.328125,25.069826126098633,50677.0
0.8700000047683716,-1.4700000286102295,8.770000457763672,-25.0625,-10.25,-41.0,2.9375,-9.1875,6.0625,1.4800000190734863,-0.8100000023841858,9.649999618530273,0.8138427734375,-0.07830810546875,-0.0396728515625,-0.57440185546875,100608.546875,25.07146644592285,50717.0
1.2100000381469727,-1.1399999856948853,9.270000457763672,-25.875,-8.75,-39.875,8.4375,-6.6875,6.375,1.5299999713897705,-0.7699999809265137,9.649999618530273,0.81524658203125,-0.0772705078125,-0.0428466796875,-0.57232666015625,100608.4921875,25.07269287109375,50757.0
1.5499999523162842,-0.41999998688697815,9.25,-26.5625,-9.1875,-40.25,6.4375,-2.5625,7.75,1.559999942779541,-0.7300000190734863,9.649999618530273,0.81695556640625,-0.07623291015625,-0.04412841796875,-0.5699462890625,100608.4921875,25.0736141204834,50797.0
1.6699999570846558,-0.5699999928474426,9.34000015258789,-25.875,-9.5625,-38.6875,0.25,4.6875,10.8125,1.5399999618530273,-0.7300000190734863,9.649999618530273,0.8192138671875,-0.0753173828125,-0.04229736328125,-0.5670166015625,100608.6640625,25.074874877929688,50837.0
1.8600000143051147,-2.0799999237060547,11.970000267028809,-25.875,-9.5625,-38.6875,4.5,8.8125,14.625,1.4800000190734863,-0.7300000190734863,9.65999984741211,0.8223876953125,-0.07159423828125,-0.0408935546875,-0.56292724609375,100608.8359375,25.072927474975586,50877.0
2.0199999809265137,-0.7300000190734863,11.630000114440918,-27.25,-9.5625,-40.25,12.1875,10.875,16.5625,1.409999966621399,-0.6600000262260437,9.680000305175781,0.825927734375,-0.0660400390625,-0.0396728515625,-0.55853271484375,100609.2109375,25.074947357177734,50917.0
1.6100000143051147,-0.41999998688697815,11.149999618530273,-27.0,-9.5625,-40.6875,10.6875,10.75,11.0,1.3200000524520874,-0.6000000238418579,9.6899995803833,0.82806396484375,-0.06146240234375,-0.03857421875,-0.55584716796875,100609.046875,25.07184600830078,50957.0
1.4500000476837158,-0.27000001072883606,11.390000343322754,-25.875,-10.5625,-39.5,1.5625,2.25,3.25,1.2799999713897705,-0.5600000023841858,9.699999809265137,0.82879638671875,-0.06085205078125,-0.03814697265625,-0.554931640625,100609.3671875,25.071231842041016,50997.0
1.5299999713897705,-0.7099999785423279,10.520000457763672,-26.5625,-10.25,-40.0,-5.1875,-2.25,4.6875,1.2799999713897705,-0.5899999737739563,9.699999809265137,0.82958984375,-0.06280517578125,-0.03778076171875,-0.55352783203125,100610.0078125,25.070781707763672,51037.0
1.4900000095367432,-1.1299999952316284,9.539999961853027,-26.5625,-10.25,-40.0,-1.5625,-3.3125,7.3125,1.2999999523162842,-0.6200000047683716,9.6899995803833,0.8309326171875,-0.0635986328125,-0.0384521484375,-0.5513916015625,100609.6953125,25.072765350341797,51077.0
1.3200000524520874,-0.9700000286102295,8.90999984741211,-25.875,-9.5625,-40.0,7.625,-3.6875,6.4375,1.3200000524520874,-0.6000000238418579,9.6899995803833,0.832275390625,-0.0618896484375,-0.04107666015625,-0.54937744140625,100609.359375,25.073667526245117,51117.0
1.4500000476837158,-0.28999999165534973,8.479999542236328,-25.0625,-9.875,-40.75,14.8125,-3.375,6.0,1.340000033378601,-0.5199999809265137,9.6899995803833,0.8336181640625,-0.05853271484375,-0.04443359375,-0.54742431640625,100609.4296875,25.07318115234375,51157.0
1.6799999475479126,0.03999999910593033,8.130000114440918,-27.0,-9.5625,-40.75,10.1875,1.25,5.9375,1.350000023841858,-0.4399999976158142,9.699999809265137,0.8349609375,-0.0555419921875,-0.04534912109375,-0.545654296875,100609.5859375,25.073396682739258,51197.0
1.3600000143051147,-0.23000000417232513,8.25,-26.5625,-11.0,-40.375,3.5,5.875,3.9375,1.3200000524520874,-0.4000000059604645,9.699999809265137,0.835693359375,-0.05352783203125,-0.04449462890625,-0.5447998046875,100609.90625,25.07586669921875,51237.0
1.190000057220459,-0.6000000238418579,8.520000457763672,-26.5625,-11.0,-40.375,2.9375,5.125,-1.1875,1.2799999713897705,-0.38999998569488525,9.710000038146973,0.83551025390625,-0.05157470703125,-0.04376220703125,-0.5452880859375,100609.5859375,25.076570510864258,51277.0
1.2400000095367432,-0.4399999976158142,8.420000076293945,-27.25,-10.5625,-40.75,5.4375,4.0,-5.4375,1.25,-0.36000001430511475,9.710000038146973,0.83447265625,-0.04986572265625,-0.0438232421875,-0.54705810546875,100609.9140625,25.07709312438965,51317.0
1.159999966621399,-0.550000011920929,8.920000076293945,-26.5625,-10.5625,-40.375,7.0625,1.4375,-11.5,1.2400000095367432,-0.3199999928474426,9.720000267028809,0.83233642578125,-0.0477294921875,-0.045166015625,-0.5504150390625,100610.2734375,25.077489852905273,51357.0
1.1699999570846558,-0.3100000023841858,9.699999809265137,-26.25,-11.375,-40.75,8.5,-3.5,-16.1875,1.2599999904632568,-0.25,9.720000267028809,0.82928466796875,-0.04620361328125,-0.048095703125,-0.55487060546875,100610.328125,25.07662582397461,51397.0
1.600000023841858,-0.3799999952316284,9.970000267028809,-27.0,-12.5,-42.0,4.625,-10.5,-18.625,1.309999942779541,-0.20000000298023224,9.710000038146973,0.8255615234375,-0.046630859375,-0.0521240234375,-0.5599365234375,100610.40625,25.075416564941406,51437.0
2.1500000953674316,-0.7799999713897705,11.609999656677246,-27.0,-12.5,-42.0,3.0625,-9.625,-21.5625,1.3799999952316284,-0.1599999964237213,9.699999809265137,0.82147216796875,-0.04608154296875,-0.05596923828125,-0.56561279296875,100610.2421875,25.075651168823242,51477.0
2.180000066757202,-0.6100000143051147,10.680000305175781,-26.5625,-12.75,-42.0625,22.5,0.875,-21.4375,1.409999966621399,-0.03999999910593033,9.699999809265137,0.81768798828125,-0.0394287109375,-0.06005859375,-0.57110595703125,100610.375,25.07583236694336,51517.0
1.8799999952316284,-0.07000000029802322,10.960000038146973,-26.25,-13.5625,-41.1875,26.6875,7.0,-18.375,1.3799999952316284,0.12999999523162842,9.699999809265137,0.81475830078125,-0.03070068359375,-0.06280517578125,-0.57562255859375,100610.375,25.07422637939453,51557.0
1.3600000143051147,0.7400000095367432,9.569999694824219,-27.25,-15.0,-41.1875,18.5,13.8125,-12.3125,1.2999999523162842,0.2800000011920929,9.710000038146973,0.81280517578125,-0.0230712890625,-0.0621337890625,-0.57879638671875,100610.4765625,25.074190139770508,51597.0
0.7099999785423279,0.5099999904632568,10.369999885559082,-27.25,-15.0,-41.1875,13.75,16.1875,-9.8125,1.190000057220459,0.3799999952316284,9.720000267028809,0.8111572265625,-0.0167236328125,-0.06036376953125,-0.58148193359375,100610.4375,25.074153900146484,51637.0
0.6499999761581421,1.5299999713897705,10.350000381469727,-25.875,-15.25,-41.0,-1.5,10.75,-12.0625,1.1100000143051147,0.4300000071525574,9.729999542236328,0.80902099609375,-0.01507568359375,-0.0567626953125,-0.5848388671875,100610.34375,25.0747127532959,51677.0
0.47999998927116394,0.3400000035762787,10.279999732971191,-26.25,-17.0625,-40.875,-12.5,12.5,-11.0,1.0299999713897705,0.3700000047683716,9.739999771118164,0.80712890625,-0.01556396484375,-0.0511474609375,-0.5880126953125,100609.75,25.072242736816406,51717.0
0.20000000298023224,-0.2800000011920929,9.369999885559082,-25.5625,-17.0,-41.6875,-5.9375,12.0,-6.875,0.9399999976158142,0.3199999928474426,9.75,0.805908203125,-0.0142822265625,-0.04730224609375,-0.5899658203125,100610.21875,25.073270797729492,51757.0
-0.14000000059604645,-0.3799999952316284,8.979999542236328,-25.5625,-16.5625,-42.5,7.8125,6.3125,-5.0625,0.8799999952316284,0.3400000035762787,9.760000228881836,0.80499267578125,-0.0107421875,-0.047607421875,-0.59124755859375,100609.96875,25.072891235351562,51797.0
-0.14000000059604645,0.5,8.300000190734863,-25.5625,-16.5625,-42.5,13.0,0.4375,-5.0625,0.8700000047683716,0.41999998688697815,9.75,0.80389404296875,-0.00830078125,-0.0501708984375,-0.59259033203125,100609.171875,25.070871353149414,51837.0
-0.009999999776482582,0.7699999809265137,8.510000228881836,-25.5625,-16.5625,-42.0625,-3.9375,-6.625,-7.0,0.8999999761581421,0.4399999976158142,9.75,0.80230712890625,-0.01092529296875,-0.0511474609375,-0.5946044921875,100608.859375,25.071088790893555,51877.0
0.3799999952316284,-0.25999999046325684,8.539999961853027,-25.5625,-16.75,-42.25,-8.375,-9.0625,-7.6875,0.9599999785423279,0.38999998569488525,9.75,0.80059814453125,-0.01470947265625,-0.05194091796875,-0.59674072265625,100609.171875,25.06951904296875,51917.0
0.44999998807907104,-0.5,8.449999809265137,-24.5,-16.375,-42.1875,-3.5,-6.75,-6.25,1.0099999904632568,0.36000001430511475,9.739999771118164,0.7991943359375,-0.0166015625,-0.05322265625,-0.59844970703125,100609.7890625,25.070655822753906,51957.0
0.3100000023841858,-0.17000000178813934,8.520000457763672,-25.0625,-17.1875,-42.0625,1.125,-5.625,-6.1875,1.0099999904632568,0.3400000035762787,9.739999771118164,0.79791259765625,-0.01739501953125,-0.05389404296875,-0.60015869140625,100610.0078125,25.06977081298828,51997.0
0.5699999928474426,0.019999999552965164,9.260000228881836,-25.0625,-17.1875,-42.0625,1.25,-5.75,-7.0,1.0499999523162842,0.36000001430511475,9.739999771118164,0.79620361328125,-0.01806640625,-0.0555419921875,-0.6021728515625,100609.4453125,25.07025909423828,52037.0
0.8899999856948853,0.4699999988079071,9.710000038146973,-25.5,-16.5,-42.5,0.25,-1.3125,-8.6875,1.0800000429153442,0.3700000047683716,9.729999542236328,0.79443359375,-0.01824951171875,-0.0556640625,-0.6044921875,100609.8515625,25.072946548461914,52077.0
0.44999998807907104,0.9300000071525574,9.350000381469727,-25.875,-16.6875,-43.25,-7.1875,0.0625,-8.375,1.0800000429153442,0.3499999940395355,9.739999771118164,0.7926025390625,-0.0203857421875,-0.0540771484375,-0.60693359375,100610.1171875,25.07206153869629,52117.0
1.2899999618530273,-1.1100000143051147,13.229999542236328,-25.5,-17.0625,-43.25,-6.5,-2.9375,-8.375,1.090000033378601,0.30000001192092896,9.739999771118164,0.7908935546875,-0.02117919921875,-0.05438232421875,-0.609130859375,100610.1484375,25.07083511352539,52157.0
2.1500000953674316,0.550000011920929,11.9399995803833,-27.0,-16.25,-43.25,2.5,0.6875,-7.4375,1.090000033378601,0.3199999928474426,9.729999542236328,0.78997802734375,-0.0206298828125,-0.05352783203125,-0.6104736328125,100609.953125,25.06989860534668,52197.0
0.9599999785423279,0.6299999952316284,11.329999923706055,-27.0,-16.25,-43.25,-5.25,8.875,-5.8125,1.0399999618530273,0.30000001192092896,9.739999771118164,0.7884521484375,-0.02056884765625,-0.05035400390625,-0.6126708984375,100610.1953125,25.07094383239746,52237.0
1.0700000524520874,-0.5600000023841858,11.229999542236328,-27.1875,-17.0,-44.25,-6.0625,-2.25,-14.0625,1.0299999713897705,0.25999999046325684,9.739999771118164,0.7850341796875,-0.02203369140625,-0.05047607421875,-0.6170654296875,100610.65625,25.072296142578125,52277.0
1.4800000190734863,-0.20000000298023224,10.420000076293945,-25.0,-16.5625,-44.75,5.625,-2.3125,-9.5625,1.0399999618530273,0.28999999165534973,9.739999771118164,0.783447265625,-0.0198974609375,-0.05291748046875,-0.61883544921875,100610.890625,25.06926727294922,52317.0
0.9599999785423279,0.28999999165534973,9.510000228881836,-25.75,-15.875,-43.5625,14.375,-3.8125,-5.75,1.059999942779541,0.3799999952316284,9.739999771118164,0.7821044921875,-0.0174560546875,-0.05731201171875,-0.62030029296875,100610.484375,25.066434860229492,52357.0
1.2899999618530273,0.7900000214576721,8.6899995803833,-26.875,-15.875,-45.1875,10.0,-7.625,-7.375,1.100000023841858,0.4399999976158142,9.729999542236328,0.78082275390625,-0.0164794921875,-0.0601806640625,-0.62164306640625,100610.8125,25.06659698486328,52397.0
1.4800000190734863,0.7200000286102295,8.430000305175781,-26.875,-15.875,-45.1875,9.5,-3.4375,-8.25,1.1299999952316284,0.5099999904632568,9.720000267028809,0.77911376953125,-0.014404296875,-0.0628662109375,-0.62353515625,100610.8125,25.06847381591797,52437.0
1.3700000047683716,0.9700000286102295,8.119999885559082,-25.6875,-16.5,-43.875,6.125,2.375,-7.3125,1.1200000047683716,0.5799999833106995,9.720000267028809,0.77764892578125,-0.01226806640625,-0.06341552734375,-0.62542724609375,100610.7734375,25.068130493164062,52477.0
1.2400000095367432,0.5799999833106995,8.359999656677246,-26.0,-16.5,-45.375,3.1875,3.1875,-9.1875,1.1100000143051147,0.6000000238418579,9.720000267028809,0.775634765625,-0.01055908203125,-0.06365966796875,-0.62786865234375,100610.734375,25.069608688354492,52517.0
1.1799999475479126,0.41999998688697815,8.380000114440918,-26.5625,-15.6875,-45.0,3.9375,4.3125,-11.875,1.0800000429153442,0.6399999856948853,9.720000267028809,0.773193359375,-0.00848388671875,-0.0634765625,-0.63092041015625,100610.2890625,25.06957244873047,52557.0
0.8100000023841858,0.46000000834465027,8.430000305175781,-24.5625,-16.25,-44.75,1.9375,1.625,-12.6875,1.0499999523162842,0.6600000262260437,9.720000267028809,0.7703857421875,-0.00738525390625,-0.063720703125,-0.63433837890625,100610.453125,25.069538116455078,52597.0
0.9200000166893005,0.7200000286102295,9.289999961853027,-24.5625,-16.25,-44.75,2.4375,-4.0,-15.5,1.059999942779541,0.6899999976158142,9.720000267028809,0.766845703125,-0.00775146484375,-0.06524658203125,-0.638427734375,100610.078125,25.067787170410156,52637.0
1.4600000381469727,0.5799999833106995,9.829999923706055,-24.875,-16.25,-43.5,-3.8125,-8.1875,-19.3125,1.100000023841858,0.6899999976158142,9.710000038146973,0.762451171875,-0.0101318359375,-0.06640625,-0.64349365234375,100610.6953125,25.067625045776367,52677.0
1.840000033378601,0.36000001430511475,10.0600004196167,-24.375,-16.6875,-44.0625,-6.5,-3.9375,-18.8125,1.1299999952316284,0.6700000166893005,9.710000038146973,0.75848388671875,-0.011962890625,-0.06585693359375,-0.64825439453125,100610.84375,25.0651912689209,52717.0
1.2899999618530273,0.03999999910593033,12.289999961853027,-24.25,-16.25,-44.0,-2.875,1.25,-13.375,1.1200000047683716,0.6499999761581421,9.710000038146973,0.755615234375,-0.011962890625,-0.0653076171875,-0.651611328125,100610.953125,25.063945770263672,52757.0
0.5899999737739563,1.9299999475479126,10.199999809265137,-23.5625,-16.875,-44.375,10.75,2.375,-8.5625,1.1100000143051147,0.6899999976158142,9.710000038146973,0.75372314453125,-0.0101318359375,-0.06634521484375,-0.65374755859375,100610.59375,25.06243133544922,52797.0
0.7900000214576721,0.1599999964237213,10.59000015258789,-23.5625,-16.875,-44.375,-1.5625,-5.0,-9.875,1.1200000047683716,0.6899999976158142,9.710000038146973,0.75128173828125,-0.01116943359375,-0.06768798828125,-0.65643310546875,100610.515625,25.062450408935547,52837.0
1.1100000143051147,1.2200000286102295,10.270000457763672,-23.5625,-16.25,-43.875,-6.75,-7.0625,-14.3125,1.159999966621399,0.6899999976158142,9.710000038146973,0.7479248046875,-0.01416015625,-0.06744384765625,-0.66015625,100610.65625,25.063621520996094,52877.0
1.4600000381469727,-0.029999999329447746,10.449999809265137,-23.6875,-15.75,-42.6875,-7.8125,0.1875,-13.375,1.1699999570846558,0.6299999952316284,9.710000038146973,0.7449951171875,-0.0155029296875,-0.06536865234375,-0.6636962890625,100611.03125,25.063350677490234,52917.0
1.0099999904632568,0.14000000059604645,10.149999618530273,-23.25,-15.75,-43.25,-11.9375,8.125,-11.875,1.1299999952316284,0.5899999737739563,9.720000267028809,0.742431640625,-0.01617431640625,-0.0606689453125,-0.66693115234375,100611.1171875,25.063135147094727,52957.0
0.6800000071525574,-1.3300000429153442,10.770000457763672,-23.5,-15.75,-42.5,-5.75,10.8125,-11.5,1.0499999523162842,0.5299999713897705,9.729999542236328,0.739990234375,-0.013916015625,-0.05767822265625,-0.66998291015625,100611.0078125,25.062395095825195,52997.0
0.3799999952316284,0.07000000029802322,9.449999809265137,-23.5,-15.75,-42.5,14.0625,9.5625,-14.375,0.9800000190734863,0.6000000238418579,9.729999542236328,0.7369384765625,-0.00799560546875,-0.0587158203125,-0.67333984375,100610.390625,25.06185531616211,53037.0
0.44999998807907104,0.5299999713897705,8.859999656677246,-21.6875,-15.75,-43.0,16.75,7.5,-16.0,0.9200000166893005,0.7099999785423279,9.729999542236328,0.73345947265625,-0.00189208984375,-0.06060791015625,-0.67706298828125,100611.0703125,25.06374740600586,53077.0
0.05999999865889549,1.0299999713897705,8.130000114440918,-21.1875,-16.1875,-44.1875,11.8125,6.0,-15.5,0.8700000047683716,0.8199999928474426,9.729999542236328,0.7301025390625,0.00213623046875,-0.0615234375,-0.6805419921875,100611.078125,25.06344223022461,53117.0
0.07000000029802322,-0.09000000357627869,8.09000015258789,-19.0,-16.25,-43.25,-0.9375,3.0,-11.3125,0.8299999833106995,0.8500000238418579,9.729999542236328,0.7276611328125,0.00335693359375,-0.06121826171875,-0.68316650390625,100610.875,25.063207626342773,53157.0
-0.2199999988079071,0.6600000262260437,8.210000038146973,-19.5625,-16.75,-43.6875,6.625,-1.0625,-7.75,0.8199999928474426,0.8899999856948853,9.729999542236328,0.7259521484375,0.00457763671875,-0.0628662109375,-0.684814453125,100611.359375,25.0636043548584,53197.0
0.07999999821186066,0.7900000214576721,8.420000076293945,-19.5625,-16.75,-43.6875,1.8125,-2.6875,-3.0625,0.8399999737739563,0.9100000262260437,9.720000267028809,0.725341796875,0.0042724609375,-0.06390380859375,-0.68536376953125,100611.2265625,25.06333351135254,53237.0
0.14000000059604645,0.699999988079071,8.619999885559082,-18.5,-16.375,-42.875,-0.5625,-4.625,0.5625,0.8600000143051147,0.9100000262260437,9.720000267028809,0.72540283203125,0.0028076171875,-0.06475830078125,-0.685302734375,100611.1640625,25.063135147094727,53277.0
0.5400000214576721,0.8299999833106995,9.619999885559082,-18.6875,-17.1875,-41.6875,-6.4375,-5.125,0.875,0.8999999761581421,0.8899999856948853,9.720000267028809,0.72540283203125,-6.103515625e-05,-0.064208984375,-0.685302734375,100611.0078125,25.063549041748047,53317.0
0.9599999785423279,0.9399999976158142,9.579999923706055,-18.25,-16.5,-43.5625,-13.4375,-1.3125,-1.5625,0.9200000166893005,0.8199999928474426,9.720000267028809,0.7249755859375,-0.0035400390625,-0.06134033203125,-0.68603515625,100611.171875,25.063875198364258,53357.0
0.6899999976158142,0.4000000059604645,12.520000457763672,-18.5625,-15.375,-42.375,-12.9375,1.6875,-0.6875,0.9100000262260437,0.7300000190734863,9.729999542236328,0.7249755859375,-0.0057373046875,-0.05889892578125,-0.68621826171875,100612.0546875,25.064685821533203,53397.0
1.0399999618530273,1.3300000429153442,11.279999732971191,-18.5625,-15.375,-42.375,16.9375,0.25,5.3125,0.9100000262260437,0.75,9.729999542236328,0.726318359375,-0.0029296875,-0.0614013671875,-0.68463134765625,100612.5234375,25.065876007080078,53437.0
1.190000057220459,1.6100000143051147,12.449999809265137,-19.1875,-14.0625,-44.0,0.25,5.9375,9.6875,0.8999999761581421,0.7799999713897705,9.729999542236328,0.72869873046875,-0.00250244140625,-0.05999755859375,-0.6822509765625,100612.7734375,25.06675910949707,53477.0
0.5799999833106995,0.4300000071525574,12.649999618530273,-18.5,-15.875,-43.1875,-4.8125,-2.625,8.25,0.8899999856948853,0.7400000095367432,9.729999542236328,0.73046875,-0.00421142578125,-0.06011962890625,-0.68023681640625,100612.3828125,25.066850662231445,53517.0
1.2000000476837158,0.4300000071525574,11.050000190734863,-18.5,-14.75,-43.0625,3.875,-8.625,9.0625,0.9399999976158142,0.75,9.729999542236328,0.7325439453125,-0.00537109375,-0.063232421875,-0.67779541015625,100611.9296875,25.0651912689209,53557.0
1.2699999809265137,0.12999999523162842,10.4399995803833,-18.5,-14.75,-43.0625,7.0,-9.5625,11.3125,1.0099999904632568,0.7799999713897705,9.720000267028809,0.73492431640625,-0.00518798828125,-0.06829833984375,-0.6746826171875,100611.6484375,25.066255569458008,53597.0
1.4600000381469727,1.2400000095367432,8.619999885559082,-18.875,-13.6875,-42.25,14.25,-9.125,10.875,1.0800000429153442,0.8700000047683716,9.699999809265137,0.7371826171875,-0.0042724609375,-0.0733642578125,-0.671630859375,100611.65625,25.065895080566406,53637.0
1.5,1.0099999904632568,8.020000457763672,-19.5625,-14.0625,-42.5,7.4375,-6.5,9.875,1.1399999856948853,0.9200000166893005,9.6899995803833,0.7392578125,-0.0040283203125,-0.076416015625,-0.66900634765625,100611.6328125,25.065046310424805,53677.0
1.8200000524520874,0.949999988079071,7.75,-19.1875,-14.75,-42.75,4.1875,0.4375,8.625,1.159999966621399,0.949999988079071,9.680000305175781,0.7412109375,-0.0029296875,-0.0770263671875,-0.6668701171875,100611.71875,25.064414978027344,53717.0
1.6799999475479126,0.9300000071525574,7.789999961853027,-18.5,-14.375,-42.375,3.0625,4.9375,5.8125,1.159999966621399,0.9700000286102295,9.680000305175781,0.7421875,-0.0020751953125,-0.07818603515625,-0.66558837890625,100611.75,25.063369750976562,53757.0
1.350000023841858,0.8999999761581421,8.239999771118164,-18.5,-14.375,-42.375,1.625,8.75,1.75,1.149999976158142,0.9900000095367432,9.680000305175781,0.7427978515625,0.0,-0.07611083984375,-0.66522216796875,100611.4453125,25.063730239868164,53797.0
1.2899999618530273,0.949999988079071,8.239999771118164,-18.875,-14.25,-41.5,-1.625,8.6875,2.1875,1.0800000429153442,0.9800000190734863,9.6899995803833,0.74346923828125,0.00115966796875,-0.07373046875,-0.6646728515625,100611.5703125,25.064577102661133,53837.0
1.149999976158142,0.6299999952316284,8.819999694824219,-18.1875,-13.5625,-42.0625,-3.125,5.5,2.6875,1.0399999618530273,0.9599999785423279,9.699999809265137,0.74420166015625,0.00140380859375,-0.07183837890625,-0.6640625,100612.625,25.066362380981445,53877.0
1.1399999856948853,0.9100000262260437,9.850000381469727,-18.1875,-14.0,-42.0625,-7.8125,-0.1875,2.5,1.0199999809265137,0.9300000071525574,9.699999809265137,0.7447509765625,-0.00091552734375,-0.0701904296875,-0.66363525390625,100612.75,25.06598472595215,53917.0
1.559999942779541,0.5699999928474426,10.029999732971191,-17.375,-12.5,-42.875,-10.4375,-3.875,1.5625,1.0399999618530273,0.8799999952316284,9.710000038146973,0.74481201171875,-0.00445556640625,-0.06890869140625,-0.6636962890625,100612.765625,25.06511878967285,53957.0
1.809999942779541,-0.27000001072883606,12.8100004196167,-17.375,-12.5,-42.875,-9.6875,-4.0,-0.6875,1.0700000524520874,0.8100000023841858,9.710000038146973,0.7445068359375,-0.00616455078125,-0.06829833984375,-0.6640625,100613.03125,25.066200256347656,53997.0
1.0099999904632568,2.309999942779541,10.850000381469727,-17.875,-12.0625,-42.0625,15.875,2.625,-0.375,1.059999942779541,0.8600000143051147,9.710000038146973,0.74456787109375,-0.00274658203125,-0.07025146484375,-0.66387939453125,100613.65625,25.068166732788086,54037.0
1.1399999856948853,0.3400000035762787,10.289999961853027,-18.25,-12.0625,-40.875,-10.75,-0.125,1.625,1.059999942779541,0.8399999737739563,9.710000038146973,0.745361328125,-0.00396728515625,-0.0684814453125,-0.66314697265625,100613.3359375,25.066164016723633,54077.0
0.8799999952316284,0.4399999976158142,10.510000228881836,-17.1875,-12.5,-41.0,-3.375,2.875,6.6875,1.0399999618530273,0.8199999928474426,9.710000038146973,0.7474365234375,-0.00347900390625,-0.06689453125,-0.66094970703125,100613.3984375,25.064685821533203,54117.0
0.3100000023841858,0.5400000214576721,10.479999542236328,-16.375,-12.0,-42.0625,3.0,7.875,12.4375,1.0099999904632568,0.8100000023841858,9.710000038146973,0.749755859375,-0.001708984375,-0.06610107421875,-0.65838623046875,100613.546875,25.064144134521484,54157.0
0.3799999952316284,-0.07999999821186066,10.670000076293945,-16.375,-12.0,-42.0625,-11.1875,3.125,14.125,0.9800000190734863,0.7900000214576721,9.720000267028809,0.7529296875,-0.00396728515625,-0.0631103515625,-0.65509033203125,100612.7890625,25.063730239868164,54197.0
0.9300000071525574,0.03999999910593033,9.829999923706055,-16.375,-12.0,-42.5625,-0.9375,1.0,13.625,0.9800000190734863,0.7300000190734863,9.720000267028809,0.755859375,-0.00347900390625,-0.062744140625,-0.6517333984375,100613.2265625,25.065155029296875,54237.0
0.5199999809265137,0.5199999809265137,9.079999923706055,-15.0,-10.5625,-41.5,5.875,4.875,10.8125,0.949999988079071,0.7699999809265137,9.720000267028809,0.75823974609375,-0.00103759765625,-0.0631103515625,-0.64892578125,100612.9765625,25.065065383911133,54277.0
0.25,0.9900000095367432,8.329999923706055,-17.25,-11.0,-41.5625,4.875,2.625,8.6875,0.9399999976158142,0.800000011920929,9.720000267028809,0.76025390625,0.00018310546875,-0.06317138671875,-0.64654541015625,100613.0078125,25.06501007080078,54317.0
-0.12999999523162842,1.0099999904632568,8.010000228881836,-16.1875,-10.5625,-42.0,-5.3125,-0.375,9.75,0.9399999976158142,0.7799999713897705,9.720000267028809,0.76226806640625,-0.002197265625,-0.06201171875,-0.644287109375,100612.75,25.064956665039062,54357.0
-0.12999999523162842,-0.14000000059604645,8.050000190734863,-16.1875,-10.5625,-42.0,-11.1875,-9.5625,7.9375,0.9800000190734863,0.7099999785423279,9.729999542236328,0.76373291015625,-0.00701904296875,-0.0626220703125,-0.6424560546875,100613.125,25.063766479492188,54397.0
0.6399999856948853,0.4000000059604645,8.020000457763672,-16.1875,-9.75,-41.0625,-2.5625,-11.125,8.6875,1.059999942779541,0.6700000166893005,9.720000267028809,0.76611328125,-0.01141357421875,-0.0645751953125,-0.63934326171875,100613.3125,25.063459396362305,54437.0
0.7300000190734863,0.5400000214576721,8.460000038146973,-16.25,-9.6875,-42.25,-7.875,-6.1875,13.3125,1.1200000047683716,0.6200000047683716,9.720000267028809,0.768310546875,-0.01446533203125,-0.06402587890625,-0.63665771484375,100613.3125,25.060916900634766,54477.0
0.8700000047683716,-0.18000000715255737,9.510000228881836,-17.0,-10.0625,-42.0625,-16.875,-6.0625,17.25,1.159999966621399,0.5199999809265137,9.720000267028809,0.77178955078125,-0.01995849609375,-0.0621337890625,-0.63250732421875,100613.5234375,25.06015968322754,54517.0
1.3899999856948853,0.15000000596046448,9.75,-17.375,-9.0,-42.25,-8.0,-0.625,16.75,1.190000057220459,0.4300000071525574,9.720000267028809,0.77532958984375,-0.02252197265625,-0.06011962890625,-0.6282958984375,100613.96875,25.059022903442383,54557.0
1.2400000095367432,0.15000000596046448,12.300000190734863,-17.375,-9.0,-42.25,-12.25,5.9375,16.875,1.1699999570846558,0.3499999940395355,9.720000267028809,0.7789306640625,-0.02435302734375,-0.05621337890625,-0.62408447265625,100614.3203125,25.05988883972168,54597.0
1.2799999713897705,1.399999976158142,11.479999542236328,-16.5625,-6.875,-42.0,-2.1875,5.8125,18.4375,1.1399999856948853,0.30000001192092896,9.729999542236328,0.78271484375,-0.0255126953125,-0.0531005859375,-0.61962890625,100614.6640625,25.061691284179688,54637.0
1.9500000476837158,0.44999998807907104,9.989999771118164,-17.0625,-7.0625,-42.0625,-25.5625,7.25,12.9375,1.100000023841858,0.1599999964237213,9.739999771118164,0.78509521484375,-0.0306396484375,-0.045654296875,-0.616943359375,100614.890625,25.060754776000977,54677.0
1.7100000381469727,-2.0799999237060547,12.869999885559082,-17.0625,-6.0,-43.1875,-15.0625,8.125,6.5,1.0399999618530273,0.009999999776482582,9.75,0.78662109375,-0.03131103515625,-0.041259765625,-0.61529541015625,100614.6015625,25.05887794494629,54717.0
1.090000033378601,0.7300000190734863,11.289999961853027,-17.1875,-4.1875,-42.1875,9.25,8.0,9.4375,0.9800000190734863,0.03999999910593033,9.75,0.78887939453125,-0.028076171875,-0.0406494140625,-0.612548828125,100614.8828125,25.0592041015625,54757.0
0.8100000023841858,-0.25999999046325684,10.850000381469727,-17.1875,-4.1875,-42.1875,-1.1875,1.1875,14.1875,0.949999988079071,0.03999999910593033,9.75,0.7918701171875,-0.02825927734375,-0.0406494140625,-0.60870361328125,100614.265625,25.05945587158203,54797.0
1.0099999904632568,0.07000000029802322,9.010000228881836,-15.75,-4.1875,-43.1875,6.3125,-7.25,16.125,0.9900000095367432,0.05000000074505806,9.75,0.795166015625,-0.0284423828125,-0.04376220703125,-0.60418701171875,100614.015625,25.058481216430664,54837.0
1.100000023841858,0.05999999865889549,8.119999885559082,-15.5625,-3.375,-43.25,4.25,-10.5625,16.375,1.0499999523162842,0.07999999821186066,9.739999771118164,0.79827880859375,-0.02972412109375,-0.04718017578125,-0.5997314453125,100613.8359375,25.058338165283203,54877.0
1.5399999618530273,0.10000000149011612,7.690000057220459,-15.25,-3.375,-43.375,-0.0625,-8.75,13.1875,1.1100000143051147,0.07999999821186066,9.739999771118164,0.80072021484375,-0.0316162109375,-0.049072265625,-0.59619140625,100614.40625,25.061115264892578,54917.0
1.840000033378601,-0.4699999988079071,7.96999979019165,-15.75,-3.6875,-43.875,-0.5,-0.125,9.5625,1.1399999856948853,0.07000000029802322,9.729999542236328,0.802490234375,-0.03155517578125,-0.048828125,-0.59381103515625,100614.0859375,25.060302734375,54957.0
1.2999999523162842,-0.09000000357627869,8.100000381469727,-15.75,-3.6875,-43.875,1.125,3.5,4.0,1.1200000047683716,0.07000000029802322,9.739999771118164,0.80322265625,-0.0306396484375,-0.04815673828125,-0.5928955078125,100614.2421875,25.060285568237305,54997.0
1.3899999856948853,-0.05999999865889549,8.140000343322754,-16.5625,-3.0,-43.5,1.5,1.875,-0.625,1.100000023841858,0.07999999821186066,9.739999771118164,0.80303955078125,-0.0303955078125,-0.0482177734375,-0.5931396484375,100614.1796875,25.060266494750977,55037.0
1.2200000286102295,0.10999999940395355,8.420000076293945,-17.25,-2.1875,-44.25,-2.5,2.5,-3.0625,1.100000023841858,0.07000000029802322,9.739999771118164,0.80242919921875,-0.03082275390625,-0.0472412109375,-0.5941162109375,100613.78125,25.05967140197754,55077.0
1.1799999475479126,-0.25,9.649999618530273,-14.875,-2.6875,-42.875,-5.625,-3.375,-5.25,1.1100000143051147,0.03999999910593033,9.739999771118164,0.80120849609375,-0.03314208984375,-0.04705810546875,-0.5955810546875,100614.609375,25.060375213623047,55117.0
1.440000057220459,-0.18000000715255737,9.640000343322754,-16.0,-0.6875,-44.0,-10.875,-6.1875,-4.625,1.1399999856948853,0.0,9.729999542236328,0.80010986328125,-0.0372314453125,-0.04638671875,-0.596923828125,100615.1015625,25.060916900634766,55157.0
1.6699999570846558,-1.309999942779541,12.579999923706055,-16.0,-0.6875,-44.0,-9.8125,-3.6875,-4.125,1.1699999570846558,-0.07000000029802322,9.729999542236328,0.799072265625,-0.039306640625,-0.046142578125,-0.59814453125,100615.078125,25.06015968322754,55197.0
0.9700000286102295,-0.38999998569488525,12.640000343322754,-16.75,-1.0625,-43.25,17.0,0.625,-5.4375,1.1799999475479126,-0.009999999776482582,9.729999542236328,0.798095703125,-0.0361328125,-0.04913330078125,-0.5994873046875,100615.703125,25.060176849365234,55237.0
0.9300000071525574,1.75,11.119999885559082,-16.0625,0.375,-43.25,-15.6875,-5.4375,-6.125,1.2100000381469727,-0.009999999776482582,9.729999542236328,0.79693603515625,-0.04144287109375,-0.046142578125,-0.600830078125,100615.7421875,25.059600830078125,55277.0
1.100000023841858,-1.3300000429153442,12.0600004196167,-15.0625,0.0,-43.375,-19.3125,7.1875,6.5,1.1799999475479126,-0.18000000715255737,9.729999542236328,0.7982177734375,-0.044189453125,-0.0416259765625,-0.59930419921875,100615.6015625,25.05685806274414,55317.0
0.18000000715255737,-0.07000000029802322,10.399999618530273,-15.0625,0.0,-43.375,4.125,1.125,8.125,1.1699999570846558,-0.18000000715255737,9.729999542236328,0.79949951171875,-0.04364013671875,-0.04364013671875,-0.59747314453125,100615.890625,25.05655288696289,55357.0
1.1699999570846558,0.17000000178813934,10.130000114440918,-15.0625,1.5,-43.375,4.125,-9.5625,3.25,1.2200000286102295,-0.1599999964237213,9.720000267028809,0.79998779296875,-0.04443359375,-0.047119140625,-0.59649658203125,100616.4140625,25.05803108215332,55397.0
1.440000057220459,0.7099999785423279,9.010000228881836,-15.5,1.75,-43.875,0.9375,-9.1875,-1.1875,1.2899999618530273,-0.12999999523162842,9.720000267028809,0.79962158203125,-0.046142578125,-0.0494384765625,-0.5966796875,100615.9609375,25.055686950683594,55437.0
1.340000033378601,0.17000000178813934,8.539999961853027,-15.875,1.6875,-43.25,-3.375,-5.75,-1.4375,1.3300000429153442,-0.15000000596046448,9.710000038146973,0.7991943359375,-0.048095703125,-0.05029296875,-0.5970458984375,100615.5234375,25.054513931274414,55477.0
1.0800000429153442,0.05999999865889549,7.900000095367432,-15.5,2.5,-43.375,-3.4375,-4.625,-1.125,1.3600000143051147,-0.17000000178813934,9.699999809265137,0.7989501953125,-0.05023193359375,-0.05078125,-0.59710693359375,100616.0,25.05420684814453,55517.0
1.0,-0.15000000596046448,7.730000019073486,-15.5,2.5,-43.375,-5.125,-6.0,0.9375,1.3899999856948853,-0.20000000298023224,9.699999809265137,0.79901123046875,-0.05316162109375,-0.05126953125,-0.59674072265625,100616.359375,25.05512809753418,55557.0
1.059999942779541,-0.3700000047683716,7.849999904632568,-14.75,2.5,-43.375,-8.875,-8.0,1.375,1.4500000476837158,-0.25999999046325684,9.6899995803833,0.79901123046875,-0.05712890625,-0.05145263671875,-0.59637451171875,100616.1328125,25.055234909057617,55597.0
1.4199999570846558,-0.6399999856948853,7.730000019073486,-14.875,1.6875,-43.0,-8.9375,-4.0,3.125,1.4900000095367432,-0.3199999928474426,9.680000305175781,0.79949951171875,-0.06011962890625,-0.05047607421875,-0.59552001953125,100616.609375,25.05474853515625,55637.0
1.3799999952316284,-0.9100000262260437,8.609999656677246,-14.1875,3.6875,-42.375,-4.75,2.6875,5.3125,1.4800000190734863,-0.3700000047683716,9.680000305175781,0.80059814453125,-0.06097412109375,-0.04852294921875,-0.5941162109375,100616.4296875,25.054964065551758,55677.0
1.3600000143051147,-0.6899999976158142,9.760000228881836,-15.25,4.0,-42.875,-6.3125,5.1875,6.5625,1.4600000381469727,-0.4000000059604645,9.680000305175781,0.80206298828125,-0.06195068359375,-0.04486083984375,-0.59228515625,100616.46875,25.054533004760742,55717.0
1.3700000047683716,-0.550000011920929,9.510000228881836,-15.25,4.0,-42.875,-11.125,9.5625,10.0625,1.399999976158142,-0.4699999988079071,9.6899995803833,0.8037109375,-0.06292724609375,-0.0406494140625,-0.59033203125,100616.7578125,25.05422592163086,55757.0
1.2200000286102295,-2.799999952316284,14.4399995803833,-14.1875,5.0625,-42.375,-12.1875,12.4375,14.8125,1.2999999523162842,-0.5799999833106995,9.699999809265137,0.80755615234375,-0.06195068359375,-0.03564453125,-0.58544921875,100617.28125,25.055723190307617,55797.0
1.7999999523162842,0.12999999523162842,12.350000381469727,-14.5625,5.75,-42.1875,4.625,7.5,13.25,1.2400000095367432,-0.5600000023841858,9.710000038146973,0.8104248046875,-0.06011962890625,-0.03265380859375,-0.58184814453125,100617.3671875,25.053955078125,55837.0
1.1799999475479126,-0.949999988079071,13.300000190734863,-12.75,6.5625,-41.875,-7.0625,11.75,16.3125,1.159999966621399,-0.6100000143051147,9.710000038146973,0.81390380859375,-0.0599365234375,-0.0291748046875,-0.57720947265625,100617.390625,25.05436897277832,55877.0
0.6800000071525574,-0.3400000035762787,11.829999923706055,-11.75,7.25,-42.0,-0.875,-0.9375,17.6875,1.1399999856948853,-0.6299999952316284,9.710000038146973,0.81634521484375,-0.06158447265625,-0.029541015625,-0.573486328125,100617.3046875,25.05352210998535,55917.0
1.7699999809265137,-0.8299999833106995,9.920000076293945,-11.75,7.25,-42.0,-14.9375,-15.3125,18.0625,1.2000000476837158,-0.699999988079071,9.699999809265137,0.81939697265625,-0.0689697265625,-0.03033447265625,-0.56829833984375,100617.0859375,25.054027557373047,55957.0
1.9900000095367432,-1.840000033378601,9.0600004196167,-11.0625,7.75,-42.5625,-17.1875,-15.375,18.8125,1.3200000524520874,-0.8600000143051147,9.670000076293945,0.82342529296875,-0.0775146484375,-0.031494140625,-0.56121826171875,100617.2890625,25.055578231811523,55997.0
2.0199999809265137,-1.600000023841858,8.0,-12.6875,9.1875,-42.0,-3.5625,-10.6875,21.875,1.3799999952316284,-0.9200000166893005,9.65999984741211,0.82781982421875,-0.0789794921875,-0.0330810546875,-0.55438232421875,100616.796875,25.05211639404297,56037.0
1.3600000143051147,-1.1799999475479126,8.109999656677246,-12.0625,9.6875,-41.6875,5.0,-4.75,26.3125,1.3899999856948853,-0.9200000166893005,9.65999984741211,0.8328857421875,-0.07879638671875,-0.03497314453125,-0.54669189453125,100617.0078125,25.051250457763672,56077.0
1.7400000095367432,-0.7900000214576721,7.690000057220459,-11.1875,9.6875,-40.25,5.875,-5.25,28.0,1.4199999570846558,-0.8999999761581421,9.65999984741211,0.8369140625,-0.07855224609375,-0.03594970703125,-0.54046630859375,100617.40625,25.05290985107422,56117.0
1.7400000095367432,-0.9800000190734863,7.820000171661377,-11.1875,9.6875,-40.25,3.8125,0.4375,29.6875,1.4299999475479126,-0.9100000262260437,9.649999618530273,0.84222412109375,-0.079345703125,-0.0367431640625,-0.531982421875,100617.40625,25.05299949645996,56157.0
1.5,-1.1100000143051147,8.010000228881836,-11.875,10.5625,-42.5625,4.75,1.375,28.0625,1.409999966621399,-0.9200000166893005,9.649999618530273,0.84857177734375,-0.07855224609375,-0.036865234375,-0.5218505859375,100618.65625,25.05422592163086,56197.0
1.5299999713897705,-1.309999942779541,8.40999984741211,-10.5,10.375,-41.75,7.1875,-0.4375,27.875,1.409999966621399,-0.9200000166893005,9.65999984741211,0.85357666015625,-0.07635498046875,-0.0384521484375,-0.513916015625,100619.0,25.055145263671875,56237.0
1.8700000047683716,-0.9900000095367432,9.380000114440918,-9.5,10.1875,-40.5625,13.75,-3.8125,25.3125,1.409999966621399,-0.8700000047683716,9.65999984741211,0.85699462890625,-0.07415771484375,-0.04046630859375,-0.50836181640625,100618.1171875,25.054100036621094,56277.0
1.940000057220459,-0.7599999904632568,10.140000343322754,-9.1875,10.75,-39.5625,7.5625,-2.8125,24.4375,1.4199999570846558,-0.8199999928474426,9.65999984741211,0.861328125,-0.07281494140625,-0.04168701171875,-0.5010986328125,100618.3046875,25.055055618286133,56317.0
1.5,-0.7699999809265137,9.149999618530273,-9.1875,10.75,-39.5625,4.3125,-0.625,22.9375,1.409999966621399,-0.8100000023841858,9.65999984741211,0.86517333984375,-0.0721435546875,-0.0421142578125,-0.49444580078125,100618.1328125,25.054603576660156,56357.0
2.0199999809265137,-2.2799999713897705,13.069999694824219,-9.1875,10.875,-39.1875,2.8125,-5.3125,18.75,1.4199999570846558,-0.8100000023841858,9.65999984741211,0.86859130859375,-0.071044921875,-0.0438232421875,-0.4884033203125,100618.390625,25.054279327392578,56397.0
1.159999966621399,-0.18000000715255737,13.15999984741211,-7.0625,10.6875,-38.75,7.875,-7.5,21.3125,1.4299999475479126,-0.7599999904632568,9.670000076293945,0.8724365234375,-0.07012939453125,-0.04620361328125,-0.48138427734375,100618.28125,25.051719665527344,56437.0
1.7999999523162842,-1.0099999904632568,13.390000343322754,-7.0625,10.5,-39.875,4.1875,-2.625,27.625,1.4500000476837158,-0.7599999904632568,9.65999984741211,0.87713623046875,-0.06964111328125,-0.04681396484375,-0.47283935546875,100618.40625,25.049789428710938,56477.0
1.7999999523162842,-0.7699999809265137,11.6899995803833,-6.6875,10.375,-38.5,-2.9375,0.0625,28.625,1.440000057220459,-0.7799999713897705,9.65999984741211,0.88140869140625,-0.07080078125,-0.04559326171875,-0.46478271484375,100618.15625,25.046632766723633,56517.0
1.8700000047683716,-1.8600000143051147,10.75,-6.6875,10.375,-38.5,1.0,4.6875,20.5625,1.409999966621399,-0.8199999928474426,9.65999984741211,0.88470458984375,-0.0689697265625,-0.044189453125,-0.4588623046875,100618.3515625,25.044828414916992,56557.0
1.1100000143051147,-0.9100000262260437,9.050000190734863,-5.5,10.1875,-38.0,23.1875,8.25,15.875,1.350000023841858,-0.7300000190734863,9.680000305175781,0.88775634765625,-0.060791015625,-0.04522705078125,-0.4539794921875,100618.078125,25.043476104736328,56597.0
0.699999988079071,0.05999999865889549,8.329999923706055,-5.0625,10.875,-38.1875,29.0625,5.4375,13.5,1.2999999523162842,-0.5600000023841858,9.699999809265137,0.89044189453125,-0.05194091796875,-0.0478515625,-0.4495849609375,100618.046875,25.04131317138672,56637.0
0.6200000047683716,0.5600000023841858,7.699999809265137,-4.25,9.1875,-38.875,18.5,-0.0625,12.6875,1.2899999618530273,-0.41999998688697815,9.710000038146973,0.89263916015625,-0.0472412109375,-0.0501708984375,-0.44549560546875,100618.1640625,25.041419982910156,56677.0
0.5199999809265137,0.15000000596046448,7.900000095367432,-3.1875,8.1875,-37.75,3.8125,-2.4375,15.1875,1.2899999618530273,-0.3700000047683716,9.710000038146973,0.89495849609375,-0.04681396484375,-0.05126953125,-0.440673828125,100618.7890625,25.042646408081055,56717.0
0.6000000238418579,0.0,7.960000038146973,-3.1875,8.1875,-37.75,-0.75,-5.0625,16.75,1.309999942779541,-0.3799999952316284,9.710000038146973,0.89727783203125,-0.04833984375,-0.05242919921875,-0.4356689453125,100619.28125,25.04416275024414,56757.0
0.949999988079071,-0.8199999928474426,8.420000076293945,-1.875,9.0625,-37.0625,-4.625,-5.625,14.75,1.350000023841858,-0.41999998688697815,9.699999809265137,0.89923095703125,-0.05047607421875,-0.05340576171875,-0.4312744140625,100619.2265625,25.044126510620117,56797.0
1.0199999809265137,-0.800000011920929,8.479999542236328,-1.875,7.75,-36.6875,4.0625,-4.4375,10.875,1.3799999952316284,-0.4300000071525574,9.6899995803833,0.9007568359375,-0.0499267578125,-0.05499267578125,-0.427978515625,100619.6953125,25.04468536376953,56837.0
1.2799999713897705,-0.03999999910593033,8.800000190734863,-1.0,7.875,-36.6875,3.8125,0.5625,8.1875,1.3899999856948853,-0.4000000059604645,9.6899995803833,0.9019775390625,-0.0491943359375,-0.054931640625,-0.42547607421875,100619.9375,25.0439453125,56877.0
1.559999942779541,-0.27000001072883606,10.140000343322754,-1.0,7.875,-36.6875,-3.375,5.6875,7.875,1.3600000143051147,-0.41999998688697815,9.699999809265137,0.9031982421875,-0.0491943359375,-0.0523681640625,-0.42315673828125,100619.7890625,25.043386459350586,56917.0
1.7200000286102295,-2.130000114440918,14.329999923706055,-1.375,7.25,-36.25,7.875,8.4375,11.0625,1.2999999523162842,-0.41999998688697815,9.699999809265137,0.9051513671875,-0.0455322265625,-0.05078125,-0.4195556640625,100619.5078125,25.042972564697266,56957.0
1.600000023841858,1.3200000524520874,10.819999694824219,0.1875,6.6875,-35.875,-2.375,6.25,12.5,1.25,-0.3799999952316284,9.710000038146973,0.90692138671875,-0.04583740234375,-0.0484619140625,-0.41595458984375,100619.3359375,25.04093360900879,56997.0
1.6200000047683716,-1.5099999904632568,12.699999809265137,1.75,6.5,-35.875,3.0,0.0625,14.25,1.2300000190734863,-0.41999998688697815,9.710000038146973,0.90899658203125,-0.04486083984375,-0.04913330078125,-0.411376953125,100619.9140625,25.042285919189453,57037.0
2.1500000953674316,-0.33000001311302185,11.4399995803833,2.25,5.875,-35.5,10.5,-2.25,18.625,1.2400000095367432,-0.3700000047683716,9.720000267028809,0.91180419921875,-0.04241943359375,-0.05059814453125,-0.40521240234375,100619.828125,25.041006088256836,57077.0
1.4199999570846558,-0.7400000095367432,11.0,2.25,5.875,-35.5,8.125,-1.4375,22.25,1.2400000095367432,-0.33000001311302185,9.720000267028809,0.9149169921875,-0.0401611328125,-0.05230712890625,-0.398193359375,100619.5,25.04060935974121,57117.0
1.3700000047683716,-0.5,9.010000228881836,2.375,5.5625,-34.0,19.0,-6.5,21.375,1.2599999904632568,-0.25999999046325684,9.720000267028809,0.9178466796875,-0.0355224609375,-0.05657958984375,-0.39129638671875,100620.03125,25.04261016845703,57157.0
1.5299999713897705,0.5199999809265137,7.849999904632568,3.5625,4.25,-34.75,15.9375,-5.8125,18.125,1.309999942779541,-0.15000000596046448,9.710000038146973,0.920166015625,-0.03204345703125,-0.05987548828125,-0.3856201171875,100619.8046875,25.04066276550293,57197.0
1.75,0.3100000023841858,7.820000171661377,2.5625,4.0,-34.5,4.3125,0.4375,9.0625,1.3200000524520874,-0.10999999940395355,9.710000038146973,0.92108154296875,-0.03094482421875,-0.06109619140625,-0.38330078125,100619.90625,25.04151153564453,57237.0
1.7000000476837158,0.019999999552965164,7.650000095367432,3.375,2.25,-34.0625,-2.25,5.3125,-0.9375,1.340000033378601,-0.09000000357627869,9.710000038146973,0.92041015625,-0.031005859375,-0.05950927734375,-0.38525390625,100619.2421875,25.0404109954834,57277.0
1.340000033378601,-0.5099999904632568,7.880000114440918,3.375,2.25,-34.0625,-2.5,10.25,-12.75,1.2699999809265137,-0.10999999940395355,9.720000267028809,0.91839599609375,-0.0296630859375,-0.0565185546875,-0.39044189453125,100619.515625,25.04131317138672,57317.0
1.159999966621399,-0.46000000834465027,8.039999961853027,2.5,1.5,-35.75,2.8125,7.75,-24.375,1.2100000381469727,-0.07999999821186066,9.729999542236328,0.91522216796875,-0.0274658203125,-0.054931640625,-0.3983154296875,100619.8671875,25.04257583618164,57357.0
1.2699999809265137,-0.20999999344348907,8.359999656677246,3.375,1.5625,-34.75,1.875,4.0625,-29.1875,1.1799999475479126,-0.03999999910593033,9.729999542236328,0.91131591796875,-0.02587890625,-0.0540771484375,-0.40728759765625,100619.5703125,25.042377471923828,57397.0
1.3799999952316284,-0.36000001430511475,9.6899995803833,3.75,0.1875,-34.0625,-0.4375,5.4375,-27.5625,1.149999976158142,-0.009999999776482582,9.729999542236328,0.90765380859375,-0.02471923828125,-0.05279541015625,-0.41571044921875,100619.7734375,25.041637420654297,57437.0
1.159999966621399,-0.20999999344348907,9.890000343322754,3.5,-0.1875,-33.75,-0.75,2.1875,-25.875,1.1299999952316284,0.0,9.739999771118164,0.90411376953125,-0.02447509765625,-0.05267333984375,-0.42327880859375,100619.359375,25.03934669494629,57477.0
1.1799999475479126,-0.3199999928474426,12.119999885559082,3.5,-0.1875,-33.75,-1.75,-2.3125,-22.125,1.1399999856948853,0.0,9.729999542236328,0.90179443359375,-0.02484130859375,-0.05328369140625,-0.4281005859375,100619.21875,25.039941787719727,57517.0
0.7400000095367432,0.23999999463558197,11.300000190734863,4.5625,-1.0,-32.75,12.1875,-2.3125,-17.4375,1.159999966621399,0.07000000029802322,9.729999542236328,0.89849853515625,-0.02178955078125,-0.0570068359375,-0.4346923828125,100619.5390625,25.041547775268555,57557.0
1.399999976158142,0.4699999988079071,10.09000015258789,4.75,-1.375,-34.5625,5.0,-7.25,-16.75,1.2000000476837158,0.11999999731779099,9.729999542236328,0.8963623046875,-0.0213623046875,-0.05877685546875,-0.43890380859375,100619.4375,25.03986930847168,57597.0
1.159999966621399,0.12999999523162842,11.75,3.1875,-2.1875,-34.0,-0.5,1.5,-8.875,1.2100000381469727,0.12999999523162842,9.729999542236328,0.8953857421875,-0.0201416015625,-0.058349609375,-0.44091796875,100619.640625,25.0391845703125,57637.0
1.1799999475479126,1.3200000524520874,10.430000305175781,3.25,-3.5625,-35.0,5.375,2.375,-4.75,1.190000057220459,0.1599999964237213,9.729999542236328,0.89483642578125,-0.01922607421875,-0.05810546875,-0.442138671875,100619.1796875,25.03866195678711,57677.0
0.9399999976158142,0.20000000298023224,10.5600004196167,3.25,-3.5625,-35.0,-7.25,7.0625,-5.8125,1.159999966621399,0.14000000059604645,9.729999542236328,0.89404296875,-0.02020263671875,-0.054931640625,-0.444091796875,100618.7265625,25.038860321044922,57717.0
0.6000000238418579,-0.14000000059604645,9.270000457763672,3.0625,-4.5,-34.75,-4.5625,7.3125,-5.1875,1.100000023841858,0.10000000149011612,9.739999771118164,0.89324951171875,-0.02008056640625,-0.0518798828125,-0.446044921875,100619.25,25.040735244750977,57757.0
0.6299999952316284,-0.09000000357627869,8.760000228881836,2.5625,-3.6875,-34.5625,0.5,4.4375,-3.5,1.0700000524520874,0.10000000149011612,9.739999771118164,0.8929443359375,-0.01910400390625,-0.05108642578125,-0.44683837890625,100619.0390625,25.038103103637695,57797.0
0.4699999988079071,0.2199999988079071,8.34000015258789,2.5,-4.875,-34.75,2.0625,1.0,-1.125,1.059999942779541,0.10999999940395355,9.739999771118164,0.8929443359375,-0.0194091796875,-0.05120849609375,-0.44683837890625,100619.1328125,25.037273406982422,57837.0
