Accel_X,Accel_Y,Accel_Z,Magneto_X,Magneto_Y,Magneto_Z,Gyro_X,Gyro_Y,Gyro_Z,Gravity_X,Gravity_Y,Gravity_Z,Quaternion_W,Quaternion_X,Quaternion_Y,Quaternion_Z,Pressure,Temperature,Time
-0.33000001311302185,2.9800000190734863,9.149999618530273,-11.0625,-7.1875,-43.375,-17.0625,-10.1875,-12.5625,-0.41999998688697815,3.4200000762939453,9.170000076293945,0.97906494140625,0.171875,0.0389404296875,0.10174560546875,83064.8515625,23.358642578125,50769.0
-0.18000000715255737,3.0399999618530273,9.1899995803833,-11.0625,-6.1875,-44.5,-11.4375,-8.625,-10.3125,-0.3799999952316284,3.319999933242798,9.210000038146973,0.98028564453125,0.16766357421875,0.03594970703125,0.09820556640625,100579.734375,27.39366912841797,50809.0
-0.14000000059604645,3.190000057220459,9.100000381469727,-11.6875,-5.75,-43.0,-11.9375,-6.25,-5.875,-0.3499999940395355,3.25,9.239999771118164,0.981201171875,0.16387939453125,0.0338134765625,0.09613037109375,100578.734375,27.413862228393555,50849.0
-0.25,3.299999952316284,9.130000114440918,-11.6875,-5.75,-43.0,-14.375,-5.375,-3.1875,-0.3199999928474426,3.1700000762939453,9.270000457763672,0.98211669921875,0.1593017578125,0.03167724609375,0.094970703125,100577.1875,27.444581985473633,50889.0
-0.2800000011920929,2.700000047683716,9.479999542236328,-12.5,-6.5,-43.375,-16.25,-4.4375,-2.125,-0.30000001192092896,3.069999933242798,9.300000190734863,0.98309326171875,0.15435791015625,0.02978515625,0.0941162109375,100577.015625,27.482622146606445,50929.0
-0.4000000059604645,3.2200000286102295,9.380000114440918,-12.875,-5.375,-43.0,-11.0,-5.125,-1.0625,-0.27000001072883606,2.990000009536743,9.329999923706055,0.9837646484375,0.15057373046875,0.027587890625,0.09381103515625,100575.703125,27.51806640625,50969.0
-0.3100000023841858,3.259999990463257,9.239999771118164,-11.6875,-4.1875,-44.1875,-16.9375,-6.75,3.3125,-0.23000000417232513,2.9000000953674316,9.359999656677246,0.98455810546875,0.1448974609375,0.0245361328125,0.09490966796875,100573.875,27.549272537231445,51009.0
-0.25999999046325684,2.509999990463257,9.3100004196167,-14.25,-4.0,-43.0,-22.6875,-8.5625,6.5,-0.17000000178813934,2.7699999809265137,9.399999618530273,0.9854736328125,0.137939453125,0.02069091796875,0.09674072265625,100572.3046875,27.5795955657959,51049.0
-0.20999999344348907,2.0199999809265137,9.529999732971191,-14.25,-4.0,-43.0,-16.625,-9.6875,4.6875,-0.10000000149011612,2.640000104904175,9.4399995803833,0.98614501953125,0.13299560546875,0.01666259765625,0.09771728515625,100571.1953125,27.607540130615234,51089.0
-0.18000000715255737,2.240000009536743,9.380000114440918,-13.5625,-2.375,-43.875,-11.4375,-12.125,-0.1875,-0.019999999552965164,2.559999942779541,9.460000038146973,0.98675537109375,0.12939453125,0.01226806640625,0.096923828125,100570.3515625,27.630794525146484,51129.0
0.009999999776482582,2.1700000762939453,9.270000457763672,-14.25,-1.6875,-44.25,-12.5625,-14.25,-3.5,0.05000000074505806,2.4800000190734863,9.479999542236328,0.98748779296875,0.12542724609375,0.0072021484375,0.0950927734375,100569.796875,27.650535583496094,51169.0
0.1899999976158142,1.9299999475479126,9.460000038146973,-14.5625,-2.5,-43.5,-9.1875,-15.8125,-5.8125,0.12999999523162842,2.4000000953674316,9.5,0.98809814453125,0.12298583984375,0.0018310546875,0.0924072265625,100569.1953125,27.667661666870117,51209.0
0.3100000023841858,2.0199999809265137,9.720000267028809,-14.1875,-1.75,-42.25,-6.0,-17.5,-6.6875,0.23000000417232513,2.359999895095825,9.510000228881836,0.988525390625,0.12176513671875,-0.00384521484375,0.08941650390625,100568.265625,27.681669235229492,51249.0
0.6800000071525574,2.2300000190734863,9.359999656677246,-14.1875,-1.75,-42.25,-0.0625,-14.375,-6.125,0.33000001311302185,2.3499999046325684,9.510000228881836,0.9886474609375,0.1220703125,-0.00811767578125,0.08697509765625,100568.15625,27.695045471191406,51289.0
0.44999998807907104,2.200000047683716,9.319999694824219,-13.875,-1.6875,-42.25,-4.5625,-10.125,-2.8125,0.38999998569488525,2.3399999141693115,9.510000228881836,0.9888916015625,0.1209716796875,-0.0115966796875,0.0855712890625,100567.9375,27.704492568969727,51329.0
0.5699999928474426,1.3799999952316284,9.449999809265137,-15.5,-1.25,-42.25,2.0625,-11.5,-1.5,0.46000000834465027,2.319999933242798,9.510000228881836,0.98870849609375,0.1226806640625,-0.01531982421875,0.08465576171875,100568.1875,27.714479446411133,51369.0
0.9700000286102295,2.130000114440918,9.479999542236328,-16.5625,-0.1875,-42.6875,11.6875,-10.0,-0.75,0.5299999713897705,2.390000104904175,9.489999771118164,0.9881591796875,0.12689208984375,-0.01806640625,0.08416748046875,100567.8984375,27.723115921020508,51409.0
1.0700000524520874,2.359999895095825,9.3100004196167,-16.875,-0.875,-41.875,13.3125,-3.375,1.3125,0.5699999928474426,2.4700000286102295,9.470000267028809,0.987548828125,0.13134765625,-0.0186767578125,0.0845947265625,100568.171875,27.730741500854492,51449.0
0.8199999928474426,2.630000114440918,9.329999923706055,-16.875,-0.875,-41.875,10.6875,-0.625,1.375,0.5799999833106995,2.549999952316284,9.449999809265137,0.987060546875,0.13482666015625,-0.01873779296875,0.0849609375,100567.9921875,27.735897064208984,51489.0
0.7799999713897705,2.2899999618530273,9.399999618530273,-17.5625,-1.6875,-42.6875,15.0,-0.625,-0.4375,0.5799999833106995,2.619999885559082,9.430000305175781,0.98638916015625,0.1397705078125,-0.01849365234375,0.0848388671875,100567.8359375,27.740909576416016,51529.0
1.0399999618530273,3.0199999809265137,9.539999961853027,-16.5,-2.6875,-41.1875,11.875,1.0625,-2.0625,0.5799999833106995,2.7100000381469727,9.399999618530273,0.98590087890625,0.1436767578125,-0.01739501953125,0.08428955078125,100567.5546875,27.74467658996582,51569.0
0.9100000262260437,3.190000057220459,9.279999732971191,-17.0,-2.6875,-43.1875,10.0625,7.8125,-1.5625,0.550000011920929,2.7799999713897705,9.380000114440918,0.98541259765625,0.14691162109375,-0.01458740234375,0.0843505859375,100567.5078125,27.748065948486328,51609.0
0.49000000953674316,3.1600000858306885,9.329999923706055,-17.0,-2.6875,-43.1875,4.25,10.5,-0.5625,0.49000000953674316,2.8299999237060547,9.369999885559082,0.98529052734375,0.14813232421875,-0.010986328125,0.0848388671875,100567.40625,27.751184463500977,51649.0
0.17000000178813934,2.930000066757202,9.350000381469727,-17.5625,-2.6875,-42.75,4.4375,8.5,-0.125,0.4300000071525574,2.8499999046325684,9.369999885559082,0.98504638671875,0.14947509765625,-0.00823974609375,0.085205078125,100567.28125,27.754104614257812,51689.0
0.18000000715255737,3.0199999809265137,9.5,-16.875,-2.0625,-42.0,6.125,4.75,0.125,0.38999998569488525,2.890000104904175,9.359999656677246,0.9847412109375,0.151611328125,-0.00628662109375,0.08551025390625,100567.3828125,27.755727767944336,51729.0
0.14000000059604645,3.259999990463257,9.270000457763672,-15.75,-3.875,-42.375,5.25,2.5,1.3125,0.36000001430511475,2.940000057220459,9.34000015258789,0.984375,0.1534423828125,-0.0052490234375,0.08587646484375,100567.3984375,27.75924301147461,51769.0
0.14000000059604645,3.309999942779541,9.319999694824219,-16.0625,-3.5,-42.75,-0.375,-1.6875,-0.4375,0.36000001430511475,2.950000047683716,9.34000015258789,0.98443603515625,0.153564453125,-0.005859375,0.0855712890625,100567.4453125,27.76072120666504,51809.0
0.23999999463558197,2.700000047683716,9.449999809265137,-16.0625,-3.5,-42.75,0.1875,-3.5625,-1.6875,0.3700000047683716,2.950000047683716,9.34000015258789,0.9842529296875,0.15460205078125,-0.0072021484375,0.08514404296875,100567.5625,27.762414932250977,51849.0
0.46000000834465027,3.430000066757202,9.369999885559082,-15.0625,-3.875,-42.75,1.75,-4.375,2.75,0.4099999964237213,2.9700000286102295,9.329999923706055,0.984130859375,0.15484619140625,-0.0086669921875,0.0859375,100567.3046875,27.76540756225586,51889.0
0.7099999785423279,3.4200000762939453,9.359999656677246,-16.875,-4.1875,-42.75,-6.75,-1.8125,4.3125,0.4300000071525574,2.950000047683716,9.34000015258789,0.984375,0.15277099609375,-0.00933837890625,0.08697509765625,100567.3984375,27.768238067626953,51929.0
0.3199999928474426,3.380000114440918,9.239999771118164,-15.75,-3.875,-42.375,-7.875,1.0,0.625,0.4300000071525574,2.9000000953674316,9.350000381469727,0.98486328125,0.14959716796875,-0.00982666015625,0.08721923828125,100567.1171875,27.76978874206543,51969.0
0.7599999904632568,2.7200000286102295,9.420000076293945,-15.75,-3.0625,-41.5625,-12.875,-2.3125,0.75,0.4399999976158142,2.8499999046325684,9.369999885559082,0.98541259765625,0.14569091796875,-0.0103759765625,0.08758544921875,100567.046875,27.77094268798828,52009.0
0.5600000023841858,2.549999952316284,9.399999618530273,-15.75,-3.0625,-41.5625,-9.25,2.5,2.375,0.4399999976158142,2.7799999713897705,9.390000343322754,0.9857177734375,0.14288330078125,-0.00970458984375,0.0887451171875,100566.828125,27.7752685546875,52049.0
0.38999998569488525,2.5999999046325684,9.3100004196167,-16.875,-2.6875,-43.1875,-9.75,3.3125,3.1875,0.41999998688697815,2.7100000381469727,9.40999984741211,0.986083984375,0.1397705078125,-0.009033203125,0.08984375,100566.8125,27.777360916137695,52089.0
0.23999999463558197,2.380000114440918,9.329999923706055,-16.875,-2.6875,-42.75,-6.4375,-0.125,1.5625,0.41999998688697815,2.6600000858306885,9.420000076293945,0.986328125,0.1376953125,-0.00933837890625,0.09033203125,100566.671875,27.777198791503906,52129.0
0.4699999988079071,2.5199999809265137,9.5,-15.0625,-2.6875,-42.75,-3.1875,-0.5625,1.4375,0.41999998688697815,2.630000114440918,9.430000305175781,0.98638916015625,0.13671875,-0.009521484375,0.0908203125,100566.8828125,27.778244018554688,52169.0
0.5099999904632568,2.680000066757202,9.420000076293945,-16.0625,-2.0625,-42.375,-3.0625,0.8125,1.5,0.41999998688697815,2.619999885559082,9.430000305175781,0.98651123046875,0.1357421875,-0.00933837890625,0.09124755859375,100566.328125,27.777864456176758,52209.0
0.3199999928474426,2.5399999618530273,9.40999984741211,-16.0625,-2.0625,-42.375,-5.0625,1.25,0.0625,0.4099999964237213,2.5899999141693115,9.4399995803833,0.9866943359375,0.13409423828125,-0.00909423828125,0.09124755859375,100566.390625,27.781038284301758,52249.0
0.3799999952316284,2.6600000858306885,9.470000267028809,-16.0625,-1.25,-43.1875,-4.0625,-2.125,-1.9375,0.41999998688697815,2.549999952316284,9.449999809265137,0.987060546875,0.13214111328125,-0.010009765625,0.09033203125,100566.8515625,27.78514862060547,52289.0
0.5,2.359999895095825,9.529999732971191,-16.5,-1.6875,-42.875,-6.125,-1.375,-1.3125,0.4300000071525574,2.5199999809265137,9.460000038146973,0.9873046875,0.13037109375,-0.01055908203125,0.090087890625,100566.9765625,27.78476905822754,52329.0
0.5099999904632568,2.4600000381469727,9.420000076293945,-16.5,-1.6875,-41.5625,-2.875,-0.375,0.25,0.4300000071525574,2.490000009536743,9.470000267028809,0.9874267578125,0.12939453125,-0.01068115234375,0.090087890625,100566.8203125,27.784481048583984,52369.0
0.49000000953674316,2.4200000762939453,9.449999809265137,-15.75,-1.6875,-42.75,-4.125,-0.1875,-0.875,0.4300000071525574,2.4800000190734863,9.470000267028809,0.98760986328125,0.12835693359375,-0.0107421875,0.08984375,100566.953125,27.784282684326172,52409.0
0.5199999809265137,2.359999895095825,9.460000038146973,-15.75,-1.6875,-42.75,0.375,-0.8125,-0.3125,0.4300000071525574,2.4600000381469727,9.479999542236328,0.98760986328125,0.1282958984375,-0.0108642578125,0.0897216796875,100566.1875,27.784698486328125,52449.0
0.4699999988079071,2.5399999618530273,9.489999771118164,-15.75,-1.25,-42.375,-1.75,0.0625,0.5625,0.4300000071525574,2.450000047683716,9.479999542236328,0.9876708984375,0.1275634765625,-0.010986328125,0.0899658203125,100566.3125,27.786157608032227,52489.0
0.44999998807907104,2.390000104904175,9.420000076293945,-16.0625,-0.875,-42.75,-1.1875,0.4375,0.375,0.4300000071525574,2.440000057220459,9.479999542236328,0.98773193359375,0.12713623046875,-0.010986328125,0.0899658203125,100566.46875,27.784950256347656,52529.0
0.4300000071525574,2.490000009536743,9.479999542236328,-16.0625,-0.5625,-43.1875,-3.125,-0.6875,-0.625,0.4300000071525574,2.430000066757202,9.479999542236328,0.98785400390625,0.12646484375,-0.01123046875,0.08990478515625,100566.6875,27.785202026367188,52569.0
0.5,2.130000114440918,9.520000457763672,-15.375,-1.6875,-42.375,-1.8125,-0.0625,-0.0625,0.4399999976158142,2.4200000762939453,9.489999771118164,0.9879150390625,0.1259765625,-0.01129150390625,0.08990478515625,100566.9140625,27.785959243774414,52609.0
0.49000000953674316,2.5299999713897705,9.489999771118164,-15.375,-1.6875,-42.375,-0.0625,0.3125,0.125,0.4399999976158142,2.4200000762939453,9.489999771118164,0.9879150390625,0.1258544921875,-0.0113525390625,0.08990478515625,100566.7109375,27.788267135620117,52649.0
0.47999998927116394,2.140000104904175,9.449999809265137,-16.0625,-1.25,-42.375,-0.1875,-0.1875,-0.625,0.4399999976158142,2.4100000858306885,9.489999771118164,0.9879150390625,0.12579345703125,-0.0113525390625,0.08966064453125,100567.0234375,27.79057502746582,52689.0
0.5899999737739563,2.4000000953674316,9.380000114440918,-16.0625,-1.25,-42.375,3.125,-0.5625,-0.0625,0.4399999976158142,2.4200000762939453,9.489999771118164,0.98779296875,0.12677001953125,-0.0113525390625,0.0897216796875,100567.4296875,27.789997100830078,52729.0
0.47999998927116394,2.2699999809265137,9.539999961853027,-17.1875,-0.875,-42.0,3.9375,0.9375,2.375,0.4399999976158142,2.440000057220459,9.479999542236328,0.987548828125,0.12811279296875,-0.01104736328125,0.09063720703125,100567.1875,27.78841209411621,52769.0
0.46000000834465027,2.9100000858306885,9.529999732971191,-16.0625,-1.6875,-42.0,6.8125,0.3125,2.6875,0.4399999976158142,2.4800000190734863,9.470000267028809,0.98724365234375,0.12982177734375,-0.01092529296875,0.091552734375,100566.9296875,27.788951873779297,52809.0
0.4300000071525574,2.7300000190734863,9.449999809265137,-16.0625,-1.6875,-42.0,-2.25,0.75,1.875,0.4399999976158142,2.490000009536743,9.470000267028809,0.9873046875,0.129150390625,-0.01092529296875,0.09210205078125,100566.3359375,27.788772583007812,52849.0
0.49000000953674316,2.190000057220459,9.420000076293945,-16.875,-1.25,-43.5625,-1.9375,0.25,0.9375,0.4399999976158142,2.4700000286102295,9.470000267028809,0.9873046875,0.12884521484375,-0.01104736328125,0.09246826171875,100566.3203125,27.789798736572266,52889.0
0.5199999809265137,2.4800000190734863,9.449999809265137,-16.0625,-1.25,-43.5625,1.9375,0.625,1.0625,0.4399999976158142,2.4800000190734863,9.470000267028809,0.9871826171875,0.12933349609375,-0.0108642578125,0.0927734375,100566.75,27.79057502746582,52929.0
0.4099999964237213,2.25,9.5,-15.375,-1.6875,-43.1875,2.125,1.0,0.4375,0.4399999976158142,2.4800000190734863,9.470000267028809,0.987060546875,0.13006591796875,-0.0106201171875,0.093017578125,100566.5625,27.789997100830078,52969.0
0.5,2.119999885559082,9.470000267028809,-16.5,-1.25,-42.75,5.5,0.1875,0.4375,0.4399999976158142,2.5,9.460000038146973,0.98687744140625,0.13128662109375,-0.010498046875,0.0931396484375,100566.6328125,27.791296005249023,53009.0
0.38999998569488525,1.899999976158142,9.529999732971191,-16.5,-1.25,-42.75,10.9375,0.5625,0.9375,0.4399999976158142,2.5299999713897705,9.460000038146973,0.986572265625,0.13336181640625,-0.01031494140625,0.0936279296875,100566.7578125,27.79169273376465,53049.0
0.5799999833106995,2.75,9.289999961853027,-15.75,-1.6875,-41.5625,20.375,-0.125,2.875,0.4399999976158142,2.609999895095825,9.4399995803833,0.985595703125,0.13958740234375,-0.0098876953125,0.09478759765625,100566.7421875,27.792556762695312,53089.0
0.7300000190734863,3.559999942779541,9.329999923706055,-16.0625,-2.6875,-42.0,11.0,2.8125,5.3125,0.4399999976158142,2.7200000286102295,9.40999984741211,0.9849853515625,0.14276123046875,-0.00872802734375,0.09674072265625,100567.375,27.79378318786621,53129.0
0.3700000047683716,2.5999999046325684,9.4399995803833,-16.5,-3.0625,-42.75,6.0625,5.5625,5.125,0.41999998688697815,2.75,9.399999618530273,0.9844970703125,0.14483642578125,-0.0069580078125,0.09857177734375,100566.84375,27.79298973083496,53169.0
0.30000001192092896,2.3299999237060547,9.40999984741211,-16.0625,-3.0625,-42.375,10.625,3.0,2.1875,0.4000000059604645,2.809999942779541,9.380000114440918,0.98388671875,0.14862060546875,-0.0057373046875,0.099365234375,100567.0859375,27.79526138305664,53209.0
0.3400000035762787,2.6500000953674316,9.029999732971191,-16.0625,-3.0625,-42.375,22.8125,1.75,0.8125,0.38999998569488525,2.9200000762939453,9.350000381469727,0.98272705078125,0.1556396484375,-0.00445556640625,0.09979248046875,100566.953125,27.795244216918945,53249.0
0.38999998569488525,2.930000066757202,9.270000457763672,-15.375,-3.5,-42.0,15.8125,2.125,0.9375,0.3799999952316284,3.0399999618530273,9.3100004196167,0.98187255859375,0.16107177734375,-0.00323486328125,0.10015869140625,100566.9296875,27.794071197509766,53289.0
0.3100000023841858,2.549999952316284,9.350000381469727,-15.375,-4.1875,-42.75,20.0625,1.3125,-0.1875,0.3700000047683716,3.1500000953674316,9.270000457763672,0.98065185546875,0.16815185546875,-0.0020751953125,0.10028076171875,100566.8203125,27.795495986938477,53329.0
0.4699999988079071,2.9600000381469727,9.34000015258789,-15.375,-4.1875,-41.5625,25.25,2.1875,1.625,0.36000001430511475,3.299999952316284,9.220000267028809,0.97930908203125,0.1754150390625,-0.00091552734375,0.10113525390625,100566.109375,27.794269561767578,53369.0
0.3799999952316284,3.259999990463257,8.720000267028809,-16.875,-5.25,-41.5625,37.0,3.5,2.0,0.3499999940395355,3.4700000286102295,9.15999984741211,0.97711181640625,0.18658447265625,0.00115966796875,0.10205078125,100566.6796875,27.796236038208008,53409.0
0.23999999463558197,4.420000076293945,9.0600004196167,-16.875,-5.25,-41.5625,19.8125,1.0625,3.1875,0.3400000035762787,3.640000104904175,9.09000015258789,0.9757080078125,0.19329833984375,0.001953125,0.1031494140625,100566.3125,27.79596519470215,53449.0
0.3199999928474426,3.359999895095825,9.140000343322754,-15.375,-7.0625,-42.375,21.625,-0.8125,3.0,0.3499999940395355,3.759999990463257,9.039999961853027,0.97406005859375,0.20086669921875,0.00244140625,0.10406494140625,100566.0,27.797496795654297,53489.0
0.5199999809265137,3.740000009536743,8.800000190734863,-15.0625,-7.5,-42.75,30.6875,1.1875,2.6875,0.36000001430511475,3.930000066757202,8.970000267028809,0.971923828125,0.21044921875,0.00360107421875,0.10504150390625,100566.046875,27.79865074157715,53529.0
0.3700000047683716,3.9700000286102295,8.850000381469727,-14.6875,-8.5625,-42.0,24.625,1.0,2.0625,0.36000001430511475,4.090000152587891,8.899999618530273,0.969970703125,0.21905517578125,0.00482177734375,0.10565185546875,100566.2578125,27.800670623779297,53569.0
0.4399999976158142,4.519999980926514,8.619999885559082,-14.6875,-8.5625,-42.0,31.5625,0.75,0.5,0.36000001430511475,4.269999980926514,8.8100004196167,0.9677734375,0.2283935546875,0.006103515625,0.10565185546875,100565.859375,27.799877166748047,53609.0
0.3700000047683716,4.590000152587891,8.670000076293945,-13.875,-9.6875,-41.1875,18.0,1.6875,-1.0625,0.3499999940395355,4.400000095367432,8.75,0.96636962890625,0.23455810546875,0.00738525390625,0.10528564453125,100565.5859375,27.80101203918457,53649.0
0.3400000035762787,4.03000020980835,8.619999885559082,-15.0625,-10.75,-41.5625,23.625,0.0,-2.4375,0.3400000035762787,4.519999980926514,8.6899995803833,0.9644775390625,0.24261474609375,0.008544921875,0.1043701171875,100566.0859375,27.80301284790039,53689.0
0.3799999952316284,4.920000076293945,8.5600004196167,-14.25,-10.75,-41.25,27.25,1.625,-3.25,0.3199999928474426,4.679999828338623,8.600000381469727,0.96234130859375,0.25128173828125,0.01019287109375,0.10345458984375,100566.03125,27.803932189941406,53729.0
0.25,4.260000228881836,8.319999694824219,-14.6875,-11.1875,-42.0,27.75,0.6875,-2.5,0.3100000023841858,4.840000152587891,8.520000457763672,0.95989990234375,0.26055908203125,0.01177978515625,0.10260009765625,100566.453125,27.805789947509766,53769.0
0.4099999964237213,5.860000133514404,8.300000190734863,-14.6875,-11.1875,-42.0,28.0625,2.25,-2.5,0.28999999165534973,5.0,8.420000076293945,0.95794677734375,0.267822265625,0.01361083984375,0.1019287109375,100566.53125,27.80660057067871,53809.0
0.2199999988079071,4.949999809265137,8.3100004196167,-14.25,-12.875,-42.0,19.1875,1.6875,-2.25,0.27000001072883606,5.110000133514404,8.359999656677246,0.95623779296875,0.27410888671875,0.01507568359375,0.10113525390625,100566.78125,27.80777359008789,53849.0
0.23999999463558197,4.53000020980835,8.15999984741211,-13.875,-13.25,-40.875,26.375,1.3125,-3.75,0.23999999463558197,5.239999771118164,8.279999732971191,0.9537353515625,0.282958984375,0.0167236328125,0.10009765625,100566.3515625,27.806943893432617,53889.0
0.15000000596046448,5.309999942779541,8.069999694824219,-14.25,-14.0,-40.875,29.0,0.9375,-1.0625,0.23000000417232513,5.400000095367432,8.170000076293945,0.950927734375,0.29229736328125,0.01812744140625,0.09967041015625,100566.265625,27.808042526245117,53929.0
0.11999999731779099,5.239999771118164,7.769999980926514,-12.875,-15.0625,-39.5625,31.5625,1.125,-1.1875,0.2199999988079071,5.519999980926514,8.09000015258789,0.9476318359375,0.302978515625,0.01953125,0.09930419921875,100566.46875,27.810585021972656,53969.0
0.20000000298023224,6.329999923706055,7.849999904632568,-12.875,-15.0625,-39.5625,29.25,-0.0625,-0.6875,0.2199999988079071,5.699999809265137,7.96999979019165,0.945068359375,0.31097412109375,0.02044677734375,0.09869384765625,100566.8828125,27.81251335144043,54009.0
0.03999999910593033,5.550000190734863,7.800000190734863,-13.1875,-17.25,-40.375,23.625,-2.4375,-2.6875,0.2199999988079071,5.860000133514404,7.849999904632568,0.94256591796875,0.31890869140625,0.02069091796875,0.09722900390625,100567.0078125,27.81278419494629,54049.0
0.3700000047683716,5.989999771118164,7.590000152587891,-13.1875,-17.5625,-38.375,27.5,-2.25,-5.0,0.2199999988079071,6.0,7.739999771118164,0.93975830078125,0.32757568359375,0.021484375,0.09521484375,100566.4140625,27.810693740844727,54089.0
0.23000000417232513,5.619999885559082,7.539999961853027,-12.875,-18.75,-39.1875,26.1875,-1.25,-5.0625,0.20000000298023224,6.139999866485596,7.630000114440918,0.93670654296875,0.3367919921875,0.0225830078125,0.09320068359375,100566.1640625,27.810855865478516,54129.0
0.3199999928474426,6.679999828338623,7.349999904632568,-12.0625,-19.5,-38.5,32.875,-1.0625,-5.1875,0.1899999976158142,6.269999980926514,7.53000020980835,0.9342041015625,0.34393310546875,0.02362060546875,0.09173583984375,100565.6640625,27.80982780456543,54169.0
0.17000000178813934,6.179999828338623,7.289999961853027,-12.0625,-19.5,-38.5,24.25,-0.3125,-4.125,0.17000000178813934,6.400000095367432,7.420000076293945,0.931396484375,0.35174560546875,0.02484130859375,0.09033203125,100565.53125,27.81020736694336,54209.0
0.27000001072883606,7.039999961853027,7.199999809265137,-12.875,-20.6875,-39.0,27.5,0.0625,-2.875,0.15000000596046448,6.559999942779541,7.269999980926514,0.92767333984375,0.361572265625,0.0263671875,0.0889892578125,100565.578125,27.810476303100586,54249.0
0.20000000298023224,6.71999979019165,7.070000171661377,-11.375,-21.25,-39.0,20.75,0.75,-1.8125,0.14000000059604645,6.670000076293945,7.179999828338623,0.92523193359375,0.367919921875,0.0274658203125,0.0885009765625,100565.0703125,27.810693740844727,54289.0
0.3199999928474426,7.21999979019165,6.920000076293945,-12.0625,-22.375,-37.0,22.875,1.5,-0.5,0.12999999523162842,6.769999980926514,7.079999923706055,0.92279052734375,0.37396240234375,0.0289306640625,0.08837890625,100565.2890625,27.812009811401367,54329.0
0.11999999731779099,7.190000057220459,6.929999828338623,-12.875,-22.0,-36.5625,12.375,3.9375,-1.875,0.10999999940395355,6.829999923706055,7.03000020980835,0.9217529296875,0.37640380859375,0.0302734375,0.08819580078125,100564.90625,27.809539794921875,54369.0
0.10000000149011612,6.420000076293945,6.829999923706055,-12.875,-22.0,-36.5625,11.0,2.5625,-1.8125,0.09000000357627869,6.880000114440918,6.980000019073486,0.92022705078125,0.3800048828125,0.03167724609375,0.08782958984375,100564.84375,27.81171989440918,54409.0
0.1599999964237213,6.989999771118164,6.760000228881836,-13.1875,-22.75,-37.6875,15.9375,3.1875,-0.9375,0.05999999865889549,6.960000038146973,6.889999866485596,0.918212890625,0.384765625,0.033203125,0.087890625,100565.078125,27.813920974731445,54449.0
0.11999999731779099,6.730000019073486,6.739999771118164,-11.6875,-23.5,-36.875,14.125,2.75,0.3125,0.05000000074505806,7.019999980926514,6.840000152587891,0.915771484375,0.390380859375,0.03485107421875,0.088134765625,100564.8515625,27.8161563873291,54489.0
0.10999999940395355,6.610000133514404,6.619999885559082,-12.0625,-23.75,-35.25,18.0,3.125,0.125,0.03999999910593033,7.090000152587891,6.769999980926514,0.913818359375,0.394775390625,0.03607177734375,0.08831787109375,100565.0703125,27.819562911987305,54529.0
0.07000000029802322,6.46999979019165,6.53000020980835,-11.6875,-24.1875,-36.875,24.125,3.6875,0.625,0.029999999329447746,7.179999828338623,6.670000076293945,0.91082763671875,0.40130615234375,0.0377197265625,0.0887451171875,100564.890625,27.818660736083984,54569.0
-0.3400000035762787,6.320000171661377,6.400000095367432,-11.6875,-24.1875,-36.875,34.625,4.875,0.4375,0.009999999776482582,7.300000190734863,6.53000020980835,0.9056396484375,0.41265869140625,0.0400390625,0.08892822265625,100564.875,27.817399978637695,54609.0
-0.4699999988079071,7.860000133514404,5.960000038146973,-11.6875,-25.25,-36.0,47.4375,-1.0,0.75,0.009999999776482582,7.5,6.309999942779541,0.897705078125,0.4298095703125,0.040283203125,0.08819580078125,100564.7265625,27.815885543823242,54649.0
0.05000000074505806,8.420000076293945,5.769999980926514,-11.0625,-25.5625,-34.875,37.375,-6.4375,2.3125,0.03999999910593033,7.670000076293945,6.099999904632568,0.89398193359375,0.43768310546875,0.03936767578125,0.08758544921875,100565.609375,27.815902709960938,54689.0
0.38999998569488525,8.170000076293945,5.699999809265137,-11.0625,-27.0625,-33.6875,26.5,-4.375,1.375,0.07000000029802322,7.789999961853027,5.940000057220459,0.89031982421875,0.4451904296875,0.03912353515625,0.08721923828125,100565.921875,27.814767837524414,54729.0
0.23000000417232513,8.0,5.659999847412109,-11.6875,-28.5625,-32.5,22.5625,0.6875,0.3125,0.07000000029802322,7.880000114440918,5.829999923706055,0.886962890625,0.4517822265625,0.03997802734375,0.08709716796875,100565.96875,27.81505584716797,54769.0
0.05000000074505806,8.0600004196167,5.539999961853027,-11.6875,-28.5625,-32.5,18.5,1.4375,-0.5,0.07000000029802322,7.960000038146973,5.710000038146973,0.88409423828125,0.45733642578125,0.04083251953125,0.0870361328125,100565.5625,27.81584930419922,54809.0
0.2199999988079071,7.690000057220459,5.429999828338623,-11.0625,-29.25,-32.875,16.8125,1.5625,-1.0625,0.05999999865889549,8.029999732971191,5.619999885559082,0.88134765625,0.46246337890625,0.0419921875,0.0869140625,100565.484375,27.815885543823242,54849.0
0.17000000178813934,7.889999866485596,5.309999942779541,-10.6875,-29.25,-32.875,19.5,3.125,0.0,0.05000000074505806,8.100000381469727,5.519999980926514,0.8782958984375,0.46807861328125,0.04345703125,0.08721923828125,100565.5703125,27.815902709960938,54889.0
0.3799999952316284,7.71999979019165,5.199999809265137,-10.25,-29.1875,-32.875,21.0,4.4375,1.3125,0.05000000074505806,8.170000076293945,5.409999847412109,0.874755859375,0.47430419921875,0.04510498046875,0.08837890625,100566.046875,27.81821060180664,54929.0
0.6000000238418579,7.909999847412109,4.96999979019165,-10.25,-30.25,-31.6875,25.5625,11.75,3.3125,0.029999999329447746,8.260000228881836,5.28000020980835,0.8702392578125,0.481689453125,0.0489501953125,0.091064453125,100565.9765625,27.81995964050293,54969.0
-0.25,8.8100004196167,4.929999828338623,-10.25,-30.25,-31.6875,24.375,12.5,4.9375,0.009999999776482582,8.350000381469727,5.130000114440918,0.8662109375,0.48797607421875,0.0523681640625,0.093994140625,100566.2421875,27.820680618286133,55009.0
-0.2199999988079071,9.010000228881836,4.840000152587891,-9.5625,-30.6875,-30.875,12.0,7.0,2.6875,0.0,8.399999618530273,5.039999961853027,0.8642578125,0.4908447265625,0.05419921875,0.09552001953125,100566.234375,27.821239471435547,55049.0
-0.23000000417232513,7.909999847412109,4.880000114440918,-9.1875,-31.375,-30.1875,8.5625,3.375,-1.4375,0.0,8.430000305175781,5.0,0.8626708984375,0.49359130859375,0.0556640625,0.0953369140625,100565.796875,27.82048225402832,55089.0
0.05999999865889549,7.809999942779541,4.679999828338623,-9.1875,-32.1875,-30.875,16.8125,1.0625,-4.3125,-0.029999999329447746,8.479999542236328,4.920000076293945,0.85986328125,0.49853515625,0.057373046875,0.09393310546875,100565.5,27.820499420166016,55129.0
0.009999999776482582,8.329999923706055,4.559999942779541,-8.5,-31.75,-29.375,19.5625,3.5,-3.625,-0.05999999865889549,8.539999961853027,4.809999942779541,0.856689453125,0.50384521484375,0.0595703125,0.09320068359375,100565.1796875,27.820518493652344,55169.0
-0.10999999940395355,8.119999885559082,4.550000190734863,-8.5,-31.75,-29.375,17.25,3.5625,-1.5625,-0.09000000357627869,8.600000381469727,4.699999809265137,0.853515625,0.50897216796875,0.06146240234375,0.09295654296875,100565.1796875,27.82168960571289,55209.0
-0.20000000298023224,8.4399995803833,4.360000133514404,-9.5625,-32.1875,-29.6875,21.4375,3.8125,-0.5,-0.10000000149011612,8.65999984741211,4.579999923706055,0.8497314453125,0.51507568359375,0.063232421875,0.09307861328125,100566.0625,27.82428550720215,55249.0
-0.20000000298023224,8.470000267028809,4.239999771118164,-9.5625,-32.875,-29.6875,22.6875,3.5,0.375,-0.10999999940395355,8.729999542236328,4.449999809265137,0.84564208984375,0.52154541015625,0.06494140625,0.09307861328125,100566.1953125,27.82565689086914,55289.0
-0.41999998688697815,9.319999694824219,4.079999923706055,-7.375,-33.1875,-27.375,21.6875,-0.5,-0.1875,-0.11999999731779099,8.800000190734863,4.320000171661377,0.842041015625,0.52728271484375,0.065673828125,0.09271240234375,100566.6796875,27.828432083129883,55329.0
0.05999999865889549,9.039999961853027,3.990000009536743,-9.5625,-34.6875,-27.375,16.125,3.3125,1.625,-0.11999999731779099,8.850000381469727,4.21999979019165,0.83917236328125,0.53167724609375,0.066650390625,0.09344482421875,100566.515625,27.828197479248047,55369.0
-0.5400000214576721,9.640000343322754,3.9700000286102295,-9.5625,-34.6875,-27.375,7.8125,-0.625,3.8125,-0.10999999940395355,8.880000114440918,4.139999866485596,0.83807373046875,0.5333251953125,0.06573486328125,0.0941162109375,100566.4609375,27.828594207763672,55409.0
-0.07000000029802322,8.670000076293945,3.9200000762939453,-8.0625,-34.6875,-26.875,1.1875,-6.25,2.5,-0.07000000029802322,8.880000114440918,4.139999866485596,0.837890625,0.533935546875,0.063720703125,0.093505859375,100566.1953125,27.828306198120117,55449.0
0.18000000715255737,8.760000228881836,3.9200000762939453,-9.5625,-34.6875,-27.375,2.1875,-4.9375,-2.6875,-0.05999999865889549,8.890000343322754,4.119999885559082,0.83782958984375,0.534423828125,0.06298828125,0.0919189453125,100566.078125,27.829837799072266,55489.0
0.20000000298023224,8.609999656677246,3.9600000381469727,-7.375,-34.6875,-26.5,0.125,-1.3125,-2.5625,-0.07000000029802322,8.890000343322754,4.119999885559082,0.8377685546875,0.53472900390625,0.062744140625,0.09124755859375,100565.96875,27.830974578857422,55529.0
0.03999999910593033,8.649999618530273,3.9200000762939453,-7.375,-34.6875,-26.5,2.375,-0.5,0.3125,-0.07000000029802322,8.899999618530273,4.110000133514404,0.83734130859375,0.53533935546875,0.06256103515625,0.0914306640625,100565.2265625,27.830686569213867,55569.0
-0.009999999776482582,8.399999618530273,3.9000000953674316,-8.5,-35.375,-27.375,0.4375,0.3125,1.5,-0.05999999865889549,8.899999618530273,4.099999904632568,0.83697509765625,0.535888671875,0.0623779296875,0.091796875,100565.8828125,27.831605911254883,55609.0
0.03999999910593033,8.829999923706055,3.9100000858306885,-8.0625,-34.6875,-26.25,3.875,0.875,0.6875,-0.05000000074505806,8.90999984741211,4.079999923706055,0.83636474609375,0.5367431640625,0.0626220703125,0.092041015625,100565.9453125,27.831153869628906,55649.0
0.019999999552965164,8.949999809265137,3.859999895095825,-8.0625,-35.0,-26.5625,0.375,1.9375,0.3125,-0.05999999865889549,8.90999984741211,4.070000171661377,0.83624267578125,0.53680419921875,0.06317138671875,0.09234619140625,100565.640625,27.83023452758789,55689.0
-0.07999999821186066,8.9399995803833,3.869999885559082,-8.5,-34.6875,-26.25,-0.4375,1.5625,0.5,-0.05999999865889549,8.90999984741211,4.070000171661377,0.83624267578125,0.5367431640625,0.0634765625,0.0927734375,100565.6484375,27.831279754638672,55729.0
-0.10999999940395355,9.039999961853027,3.9000000953674316,-8.5,-34.6875,-26.25,-2.625,0.625,0.8125,-0.05999999865889549,8.90999984741211,4.079999923706055,0.8367919921875,0.53582763671875,0.06329345703125,0.09307861328125,100565.65625,27.832632064819336,55769.0
0.0,9.0,3.890000104904175,-8.875,-34.6875,-26.25,-3.375,0.875,1.0625,-0.05000000074505806,8.899999618530273,4.099999904632568,0.8372802734375,0.53497314453125,0.06317138671875,0.09375,100565.484375,27.833084106445312,55809.0
-0.07999999821186066,9.34000015258789,3.9200000762939453,-8.0625,-34.375,-26.5625,-9.8125,1.625,2.625,-0.03999999910593033,8.880000114440918,4.139999866485596,0.83905029296875,0.531982421875,0.062744140625,0.094970703125,100565.421875,27.83283042907715,55849.0
-0.23000000417232513,9.050000190734863,3.9600000381469727,-8.5,-34.375,-27.75,-14.1875,-0.375,2.125,-0.029999999329447746,8.850000381469727,4.210000038146973,0.84130859375,0.52838134765625,0.06201171875,0.09552001953125,100565.4609375,27.832651138305664,55889.0
0.009999999776482582,9.720000267028809,4.090000152587891,-9.5625,-34.375,-26.875,-20.625,-2.1875,1.375,-0.019999999552965164,8.819999694824219,4.28000020980835,0.84576416015625,0.5213623046875,0.060546875,0.0958251953125,100565.8671875,27.833660125732422,55929.0
-0.03999999910593033,9.069999694824219,4.25,-9.5625,-34.375,-26.875,-29.375,-1.875,0.25,-0.019999999552965164,8.739999771118164,4.440000057220459,0.85125732421875,0.51251220703125,0.0589599609375,0.09613037109375,100565.78125,27.834434509277344,55969.0
0.05000000074505806,8.270000457763672,4.420000076293945,-8.875,-34.0,-28.5,-30.5625,-2.3125,-0.1875,-0.009999999776482582,8.609999656677246,4.670000076293945,0.8564453125,0.50390625,0.057373046875,0.0960693359375,100565.390625,27.83441734313965,56009.0
0.07000000029802322,8.510000228881836,4.519999980926514,-9.1875,-33.5625,-29.375,-30.3125,-3.25,-2.4375,-0.009999999776482582,8.520000457763672,4.840000152587891,0.86163330078125,0.49530029296875,0.055908203125,0.09539794921875,100564.8203125,27.83384132385254,56049.0
0.07000000029802322,7.940000057220459,4.739999771118164,-8.875,-32.875,-29.6875,-30.25,-1.8125,-3.0625,-0.019999999552965164,8.420000076293945,5.019999980926514,0.86669921875,0.4866943359375,0.05487060546875,0.0948486328125,100564.8203125,27.83340835571289,56089.0
-0.10000000149011612,8.0,4.900000095367432,-9.875,-31.75,-30.875,-26.9375,-1.8125,-1.375,-0.019999999552965164,8.350000381469727,5.130000114440918,0.8699951171875,0.4808349609375,0.05389404296875,0.0948486328125,100564.3203125,27.833084106445312,56129.0
-0.07999999821186066,7.980000019073486,5.079999923706055,-9.875,-31.75,-30.875,-26.1875,-2.375,-0.5625,-0.019999999552965164,8.25,5.28000020980835,0.874267578125,0.47320556640625,0.0523681640625,0.0948486328125,100564.7890625,27.83571434020996,56169.0
0.019999999552965164,7.78000020980835,5.230000019073486,-9.875,-31.375,-30.5,-24.6875,-2.75,-0.875,-0.009999999776482582,8.140000343322754,5.460000038146973,0.879150390625,0.46429443359375,0.05059814453125,0.09454345703125,100564.546875,27.835390090942383,56209.0
0.07999999821186066,7.960000038146973,5.400000095367432,-9.875,-30.6875,-31.25,-23.875,-2.125,-0.8125,0.0,8.050000190734863,5.590000152587891,0.8829345703125,0.45721435546875,0.04931640625,0.0946044921875,100564.6953125,27.833984375,56249.0
-0.05000000074505806,7.679999828338623,5.619999885559082,-8.875,-30.0,-31.6875,-23.8125,-1.75,0.25,0.0,7.980000019073486,5.690000057220459,0.886474609375,0.450439453125,0.0478515625,0.0947265625,100565.015625,27.83409309387207,56289.0
-0.23000000417232513,7.789999961853027,5.710000038146973,-10.6875,-28.5,-32.5,-20.875,-3.375,1.1875,0.0,7.900000095367432,5.809999942779541,0.888916015625,0.44580078125,0.04638671875,0.0947265625,100564.328125,27.832433700561523,56329.0
-0.03999999910593033,7.980000019073486,5.789999961853027,-10.6875,-28.5,-32.5,-21.5625,-5.875,0.0,0.019999999552965164,7.809999942779541,5.920000076293945,0.8922119140625,0.439453125,0.04400634765625,0.0941162109375,100564.6171875,27.83466911315918,56369.0
0.12999999523162842,8.199999809265137,5.829999923706055,-11.0625,-29.1875,-32.5,-27.875,-6.0625,-0.875,0.05000000074505806,7.679999828338623,6.079999923706055,0.8966064453125,0.43084716796875,0.04144287109375,0.09332275390625,100564.2734375,27.834596633911133,56409.0
0.07999999821186066,7.650000095367432,5.980000019073486,-10.6875,-28.0625,-32.875,-35.875,-5.3125,-1.6875,0.07000000029802322,7.539999961853027,6.260000228881836,0.90179443359375,0.4202880859375,0.038818359375,0.092529296875,100564.4609375,27.836851119995117,56449.0
0.20999999344348907,7.519999980926514,6.150000095367432,-11.6875,-27.5625,-34.875,-36.1875,-5.1875,-0.75,0.07999999821186066,7.420000076293945,6.400000095367432,0.90704345703125,0.4093017578125,0.0362548828125,0.0921630859375,100564.0,27.837390899658203,56489.0
0.12999999523162842,7.25,6.329999923706055,-11.6875,-25.5,-35.6875,-39.3125,-3.875,0.375,0.10000000149011612,7.260000228881836,6.579999923706055,0.91229248046875,0.3975830078125,0.03375244140625,0.092041015625,100563.7265625,27.837806701660156,56529.0
0.20000000298023224,7.019999980926514,6.610000133514404,-11.6875,-25.5,-35.6875,-40.6875,-4.1875,0.6875,0.11999999731779099,7.079999923706055,6.78000020980835,0.91778564453125,0.385009765625,0.03118896484375,0.0921630859375,100563.7265625,27.835227966308594,56569.0
0.12999999523162842,6.329999923706055,6.840000152587891,-12.0625,-24.0625,-36.5,-40.125,-4.0,-0.25,0.14000000059604645,6.889999866485596,6.96999979019165,0.92401123046875,0.37017822265625,0.028076171875,0.091796875,100563.140625,27.833858489990234,56609.0
0.2800000011920929,6.150000095367432,6.96999979019165,-12.375,-23.375,-36.5625,-34.5625,-4.4375,-1.8125,0.1599999964237213,6.710000038146973,7.139999866485596,0.9271240234375,0.362548828125,0.0264892578125,0.09112548828125,100563.609375,27.832849502563477,56649.0
0.3499999940395355,6.800000190734863,7.090000152587891,-12.75,-22.25,-36.1875,-30.125,-3.0,-2.0,0.1599999964237213,6.559999942779541,7.28000020980835,0.93096923828125,0.352783203125,0.0250244140625,0.0904541015625,100563.7734375,27.83209228515625,56689.0
0.23999999463558197,6.369999885559082,7.230000019073486,-12.875,-21.0625,-37.75,-35.375,-0.875,-1.75,0.1599999964237213,6.389999866485596,7.420000076293945,0.9351806640625,0.34173583984375,0.02374267578125,0.090087890625,100563.609375,27.8309383392334,56729.0
0.25999999046325684,6.210000038146973,7.369999885559082,-12.875,-21.0625,-37.75,-37.1875,-1.3125,-0.5,0.17000000178813934,6.210000038146973,7.579999923706055,0.93927001953125,0.3304443359375,0.022216796875,0.0902099609375,100563.296875,27.832380294799805,56769.0
0.23000000417232513,6.130000114440918,7.590000152587891,-13.875,-20.375,-38.0625,-41.375,0.125,0.0625,0.17000000178813934,6.019999980926514,7.730000019073486,0.9437255859375,0.3175048828125,0.0208740234375,0.09051513671875,100563.1328125,27.8328857421875,56809.0
0.1899999976158142,5.869999885559082,7.730000019073486,-12.875,-19.25,-38.5,-41.4375,0.125,0.875,0.17000000178813934,5.800000190734863,7.900000095367432,0.94805908203125,0.30419921875,0.01953125,0.091064453125,100562.765625,27.832687377929688,56849.0
0.1899999976158142,5.309999942779541,7.880000114440918,-13.5625,-17.375,-40.0625,-43.9375,-0.125,0.5625,0.18000000715255737,5.570000171661377,8.0600004196167,0.952392578125,0.290283203125,0.0181884765625,0.0914306640625,100562.609375,27.831966400146484,56889.0
0.10000000149011612,5.400000095367432,8.09000015258789,-13.5625,-15.875,-39.6875,-42.375,-0.375,0.0625,0.18000000715255737,5.329999923706055,8.220000267028809,0.95648193359375,0.27655029296875,0.0167236328125,0.09161376953125,100562.265625,27.832000732421875,56929.0
0.18000000715255737,4.909999847412109,8.170000076293945,-13.5625,-15.875,-39.6875,-44.5,-1.375,-0.625,0.18000000715255737,5.090000152587891,8.369999885559082,0.96051025390625,0.26226806640625,0.01495361328125,0.091552734375,100562.484375,27.834327697753906,56969.0
0.1599999964237213,5.159999847412109,8.399999618530273,-15.0,-15.25,-41.0,-45.875,-2.6875,-1.0,0.1899999976158142,4.829999923706055,8.520000457763672,0.96453857421875,0.2474365234375,0.01275634765625,0.0911865234375,100562.765625,27.836076736450195,57009.0
0.30000001192092896,4.170000076293945,8.470000267028809,-13.875,-13.0625,-40.5625,-47.6875,-1.75,-1.0,0.20000000298023224,4.559999942779541,8.670000076293945,0.96832275390625,0.23223876953125,0.01080322265625,0.091064453125,100562.796875,27.837390899658203,57049.0
0.25,4.070000171661377,8.729999542236328,-14.25,-11.5625,-41.6875,-42.875,-0.6875,0.0,0.20999999344348907,4.300000190734863,8.8100004196167,0.97161865234375,0.21820068359375,0.00921630859375,0.0911865234375,100562.6484375,27.837228775024414,57089.0
0.20999999344348907,3.5799999237060547,8.84000015258789,-15.0625,-10.0625,-42.0625,-40.625,-1.1875,0.375,0.20999999344348907,4.050000190734863,8.920000076293945,0.97442626953125,0.205078125,0.007568359375,0.09130859375,100562.609375,27.83710289001465,57129.0
0.3499999940395355,3.619999885559082,8.949999809265137,-15.0625,-10.0625,-42.0625,-35.3125,-0.375,1.125,0.2199999988079071,3.819999933242798,9.020000457763672,0.97686767578125,0.1932373046875,0.00628662109375,0.09173583984375,100562.1796875,27.83757209777832,57169.0
0.20000000298023224,2.9200000762939453,9.0,-14.25,-7.875,-42.5,-32.4375,-0.125,2.6875,0.2199999988079071,3.5999999046325684,9.109999656677246,0.978759765625,0.182861328125,0.005126953125,0.0927734375,100562.1484375,27.837356567382812,57209.0
0.23000000417232513,4.139999866485596,9.050000190734863,-15.0,-7.1875,-43.375,-31.75,-0.375,4.5625,0.23000000417232513,3.4200000762939453,9.180000305175781,0.98065185546875,0.1715087890625,0.00360107421875,0.09429931640625,100561.9765625,27.838346481323242,57249.0
0.25999999046325684,2.430000066757202,9.140000343322754,-15.0,-6.0625,-43.25,-40.0,-3.0625,6.3125,0.25999999046325684,3.1700000762939453,9.270000457763672,0.9825439453125,0.1590576171875,0.00103759765625,0.0963134765625,100562.203125,27.83910369873047,57289.0
0.5199999809265137,3.140000104904175,8.979999542236328,-14.1875,-3.875,-42.0625,-35.1875,-2.125,7.125,0.28999999165534973,2.950000047683716,9.34000015258789,0.98419189453125,0.14691162109375,-0.0010986328125,0.09869384765625,100561.9140625,27.83850860595703,57329.0
0.6100000143051147,2.4700000286102295,9.279999732971191,-14.1875,-3.875,-42.0625,-38.375,0.0625,9.4375,0.3100000023841858,2.700000047683716,9.40999984741211,0.9857177734375,0.13397216796875,-0.00274658203125,0.1019287109375,100562.1953125,27.83921241760254,57369.0
0.49000000953674316,2.5,9.59000015258789,-16.0,-3.5625,-43.0,-40.1875,2.25,11.375,0.3199999928474426,2.450000047683716,9.479999542236328,0.98699951171875,0.12091064453125,-0.00372314453125,0.1058349609375,100561.9375,27.83915901184082,57409.0
0.4699999988079071,1.7999999523162842,9.609999656677246,-16.0,-1.75,-42.0625,-32.6875,4.8125,11.9375,0.3100000023841858,2.2200000286102295,9.539999961853027,0.98785400390625,0.1099853515625,-0.0037841796875,0.10992431640625,100562.390625,27.84027671813965,57449.0
0.3499999940395355,1.4800000190734863,9.550000190734863,-15.6875,0.1875,-43.25,-25.625,4.5,10.75,0.30000001192092896,2.0299999713897705,9.579999923706055,0.98834228515625,0.1014404296875,-0.003662109375,0.11370849609375,100562.2265625,27.840545654296875,57489.0
0.3799999952316284,1.25,9.619999885559082,-15.6875,0.1875,-43.25,-18.0,4.3125,10.625,0.28999999165534973,1.8899999856948853,9.609999656677246,0.98846435546875,0.0955810546875,-0.00323486328125,0.1173095703125,100561.9296875,27.840167999267578,57529.0
0.33000001311302185,1.190000057220459,9.59000015258789,-15.0,1.1875,-42.5625,-8.625,3.75,9.6875,0.27000001072883606,1.809999942779541,9.630000114440918,0.9884033203125,0.092041015625,-0.00286865234375,0.12066650390625,100561.6953125,27.841033935546875,57569.0
0.41999998688697815,1.3600000143051147,9.65999984741211,-15.6875,2.375,-43.375,-3.8125,3.875,8.1875,0.25999999046325684,1.7400000095367432,9.640000343322754,0.98828125,0.089599609375,-0.00244140625,0.1236572265625,100561.15625,27.84225845336914,57609.0
0.28999999165534973,1.4299999475479126,9.5600004196167,-15.25,2.25,-43.375,0.9375,4.0625,10.0625,0.25,1.7200000286102295,9.649999618530273,0.9879150390625,0.08868408203125,-0.00164794921875,0.12725830078125,100561.6875,27.843177795410156,57649.0
0.3499999940395355,0.8600000143051147,9.579999923706055,-14.5625,2.25,-43.375,5.8125,3.4375,12.4375,0.23999999463558197,1.7200000286102295,9.649999618530273,0.98712158203125,0.0908203125,-0.00048828125,0.131591796875,100561.7421875,27.842132568359375,57689.0
0.3499999940395355,2.3399999141693115,9.739999771118164,-14.5625,2.25,-43.375,7.8125,4.375,12.625,0.23000000417232513,1.7699999809265137,9.640000343322754,0.9864501953125,0.09197998046875,0.00079345703125,0.13580322265625,100561.25,27.844242095947266,57729.0
0.25999999046325684,1.690000057220459,9.600000381469727,-14.1875,2.25,-44.0625,2.875,3.9375,10.625,0.2199999988079071,1.7799999713897705,9.630000114440918,0.98590087890625,0.09271240234375,0.00189208984375,0.1392822265625,100561.421875,27.846405029296875,57769.0
0.20999999344348907,2.509999990463257,9.789999961853027,-14.1875,3.0,-41.6875,-4.375,4.25,7.1875,0.20000000298023224,1.7799999713897705,9.640000343322754,0.9857177734375,0.09100341796875,0.0028076171875,0.14178466796875,100561.703125,27.84743309020996,57809.0
0.14000000059604645,2.0899999141693115,9.5,-13.5,1.875,-41.6875,-5.6875,3.1875,5.875,0.1899999976158142,1.7400000095367432,9.640000343322754,0.985595703125,0.0889892578125,0.00347900390625,0.14385986328125,100561.015625,27.84764862060547,57849.0
0.10999999940395355,2.119999885559082,9.699999809265137,-13.5,2.375,-43.0,-11.4375,2.875,5.5,0.17000000178813934,1.7100000381469727,9.649999618530273,0.98565673828125,0.0853271484375,0.0037841796875,0.14556884765625,100561.546875,27.847793579101562,57889.0
0.14000000059604645,1.6799999475479126,9.649999618530273,-13.5,2.375,-43.0,-12.875,2.3125,3.75,0.1599999964237213,1.6299999952316284,9.65999984741211,0.98583984375,0.0810546875,0.00372314453125,0.14678955078125,100561.359375,27.848478317260742,57929.0
0.1599999964237213,2.2699999809265137,9.680000305175781,-14.5,2.75,-43.25,-17.5625,2.0,3.875,0.15000000596046448,1.5199999809265137,9.680000305175781,0.98614501953125,0.07476806640625,0.00335693359375,0.14825439453125,100561.8515625,27.851308822631836,57969.0
-0.09000000357627869,1.7400000095367432,9.710000038146973,-14.0625,4.1875,-44.5,-23.6875,-0.0625,3.5,0.15000000596046448,1.3700000047683716,9.699999809265137,0.98651123046875,0.0665283203125,0.001953125,0.14935302734375,100561.6328125,27.8499755859375,58009.0
0.10999999940395355,1.4700000286102295,9.670000076293945,-13.5,4.5,-43.25,-27.3125,-0.4375,0.875,0.15000000596046448,1.2000000476837158,9.729999542236328,0.987060546875,0.057373046875,0.00042724609375,0.14959716796875,100561.7109375,27.850696563720703,58049.0
0.30000001192092896,1.7899999618530273,9.760000228881836,-13.5,6.6875,-42.875,-26.9375,-2.1875,-0.8125,0.1599999964237213,1.0700000524520874,9.739999771118164,0.9874267578125,0.0518798828125,-0.00103759765625,0.149169921875,100561.4765625,27.85123634338379,58089.0
0.07000000029802322,1.8899999856948853,9.710000038146973,-13.5,6.6875,-42.875,-36.3125,-1.875,-3.9375,0.17000000178813934,0.8799999952316284,9.760000228881836,0.98822021484375,0.03924560546875,-0.003662109375,0.14776611328125,100561.3828125,27.851652145385742,58129.0
0.25999999046325684,1.9800000190734863,9.8100004196167,-14.5625,6.6875,-43.0,-52.5625,-2.75,-6.0625,0.1899999976158142,0.47999998927116394,9.789999961853027,0.98931884765625,0.015625,-0.00811767578125,0.144775390625,100560.96875,27.853111267089844,58169.0
0.3199999928474426,1.5199999809265137,9.369999885559082,-14.5625,8.5,-42.5625,-65.0,-2.3125,-6.5625,0.20999999344348907,0.05000000074505806,9.800000190734863,0.98968505859375,-0.00811767578125,-0.0123291015625,0.14263916015625,100560.9609375,27.853038787841797,58209.0
0.25,0.4300000071525574,9.760000228881836,-15.0,10.6875,-42.1875,-83.0,-0.75,-4.3125,0.20999999344348907,-0.4699999988079071,9.789999961853027,0.98919677734375,-0.0362548828125,-0.0164794921875,0.14117431640625,100560.953125,27.852426528930664,58249.0
0.33000001311302185,-0.8899999856948853,9.489999771118164,-13.75,13.25,-41.0625,-80.25,-0.625,-0.9375,0.2199999988079071,-0.8799999952316284,9.760000228881836,0.98828125,-0.05615234375,-0.0194091796875,0.140625,100560.0703125,27.85022735595703,58289.0
0.6800000071525574,-2.450000047683716,9.600000381469727,-13.75,13.25,-41.0625,-78.25,1.375,-3.5625,0.2199999988079071,-1.399999976158142,9.699999809265137,0.9866943359375,-0.08160400390625,-0.02239990234375,0.1387939453125,100560.359375,27.850894927978516,58329.0
0.25,-2.609999895095825,9.4399995803833,-15.0,15.375,-40.25,-61.125,4.5,-5.5,0.1899999976158142,-1.940000057220459,9.609999656677246,0.985107421875,-0.10174560546875,-0.0240478515625,0.13629150390625,100559.9609375,27.85080337524414,58369.0
0.23000000417232513,-3.319999933242798,9.300000190734863,-14.5625,18.5,-39.0625,-50.75,3.25,-6.75,0.18000000715255737,-2.2699999809265137,9.529999732971191,0.983642578125,-0.1181640625,-0.0255126953125,0.13360595703125,100559.3828125,27.850173950195312,58409.0
0.33000001311302185,-2.5799999237060547,9.390000343322754,-15.25,21.0,-38.25,-39.4375,0.875,-4.5,0.18000000715255737,-2.4700000286102295,9.479999542236328,0.982177734375,-0.13128662109375,-0.02703857421875,0.1317138671875,100559.34375,27.850263595581055,58449.0
0.3799999952316284,-2.6500000953674316,9.359999656677246,-16.375,21.0,-38.375,-40.75,1.125,-2.125,0.18000000715255737,-2.7200000286102295,9.40999984741211,0.9803466796875,-0.14495849609375,-0.028564453125,0.1307373046875,100559.703125,27.851490020751953,58489.0
-0.019999999552965164,-2.950000047683716,9.430000305175781,-16.375,21.0,-38.375,-45.375,2.9375,-0.25,0.1599999964237213,-3.0,9.329999923706055,0.97802734375,-0.15972900390625,-0.02972412109375,0.13055419921875,100559.734375,27.849523544311523,58529.0
-0.05000000074505806,-2.930000066757202,8.890000343322754,-15.25,23.0625,-37.5,-45.0,0.625,5.0,0.15000000596046448,-3.2799999713897705,9.239999771118164,0.97442626953125,-0.178955078125,-0.03179931640625,0.1319580078125,100560.1796875,27.849794387817383,58569.0
-0.3100000023841858,-3.3499999046325684,9.460000038146973,-14.1875,23.75,-35.5625,-52.6875,0.8125,2.9375,0.14000000059604645,-3.5799999237060547,9.119999885559082,0.97186279296875,-0.1925048828125,-0.03326416015625,0.1318359375,100559.859375,27.845359802246094,58609.0
-0.15000000596046448,-3.930000066757202,9.34000015258789,-15.0,26.1875,-34.75,-55.5625,2.125,-1.6875,0.12999999523162842,-3.9200000762939453,8.979999542236328,0.9681396484375,-0.210693359375,-0.03509521484375,0.1304931640625,100560.78125,27.84723472595215,58649.0
0.4099999964237213,-4.670000076293945,8.789999961853027,-15.0,28.0,-33.5625,-56.8125,-0.625,-6.4375,0.12999999523162842,-4.25,8.829999923706055,0.96435546875,-0.2283935546875,-0.0377197265625,0.12799072265625,100560.828125,27.848064422607422,58689.0
0.10999999940395355,-4.849999904632568,8.789999961853027,-15.0,28.0,-33.5625,-49.8125,0.625,-6.5,0.14000000059604645,-4.559999942779541,8.670000076293945,0.96075439453125,-0.2442626953125,-0.0401611328125,0.12542724609375,100560.5625,27.849271774291992,58729.0
0.8899999856948853,-5.190000057220459,8.829999923706055,-15.1875,29.0,-32.875,-42.0625,-2.0,-3.125,0.1599999964237213,-4.820000171661377,8.529999732971191,0.957275390625,-0.25775146484375,-0.0426025390625,0.12420654296875,100560.25,27.850749969482422,58769.0
0.25999999046325684,-5.309999942779541,8.40999984741211,-14.875,29.75,-30.875,-32.875,-0.0625,0.5,0.17000000178813934,-5.03000020980835,8.40999984741211,0.95440673828125,-0.26806640625,-0.04412841796875,0.1239013671875,100560.4609375,27.851272583007812,58809.0
0.8500000238418579,-5.510000228881836,8.210000038146973,-15.25,31.5625,-28.75,-31.375,-0.4375,1.3125,0.17000000178813934,-5.210000038146973,8.300000190734863,0.9515380859375,-0.27783203125,-0.045166015625,0.12371826171875,100560.1875,27.850515365600586,58849.0
0.46000000834465027,-5.659999847412109,8.289999961853027,-15.875,32.75,-29.25,-24.625,1.875,1.75,0.1599999964237213,-5.360000133514404,8.199999809265137,0.94915771484375,-0.28594970703125,-0.045654296875,0.1236572265625,100560.015625,27.851110458374023,58889.0
0.3199999928474426,-5.710000038146973,8.199999809265137,-15.875,32.75,-29.25,-22.3125,1.5,1.125,0.15000000596046448,-5.489999771118164,8.109999656677246,0.94696044921875,-0.29302978515625,-0.04644775390625,0.1234130859375,100560.3046875,27.853273391723633,58929.0
0.4000000059604645,-5.829999923706055,8.130000114440918,-15.875,33.1875,-28.5625,-19.25,1.4375,1.0625,0.14000000059604645,-5.599999904632568,8.039999961853027,0.945068359375,-0.2991943359375,-0.046875,0.12310791015625,100559.890625,27.85260772705078,58969.0
0.25,-5.599999904632568,8.0600004196167,-15.875,34.25,-27.25,-14.75,1.0,0.25,0.14000000059604645,-5.690000057220459,7.96999979019165,0.94354248046875,-0.30401611328125,-0.0472412109375,0.12274169921875,100560.0390625,27.85323715209961,59009.0
0.23000000417232513,-5.949999809265137,7.940000057220459,-16.6875,34.25,-27.0,-16.0625,0.1875,-0.375,0.14000000059604645,-5.78000020980835,7.909999847412109,0.94189453125,-0.30902099609375,-0.0478515625,0.12249755859375,100560.046875,27.852571487426758,59049.0
0.25999999046325684,-6.059999942779541,8.0600004196167,-15.5625,35.0,-25.875,-11.4375,0.1875,0.25,0.14000000059604645,-5.849999904632568,7.860000133514404,0.9407958984375,-0.3125,-0.04833984375,0.122314453125,100560.296875,27.853796005249023,59089.0
0.17000000178813934,-5.789999961853027,7.980000019073486,-15.5625,35.0,-25.875,-9.75,0.8125,0.875,0.14000000059604645,-5.900000095367432,7.820000171661377,0.93975830078125,-0.31561279296875,-0.048583984375,0.1221923828125,100560.7421875,27.85413932800293,59129.0
0.15000000596046448,-6.050000190734863,7.869999885559082,-15.875,34.25,-25.875,-10.0,0.25,-0.3125,0.12999999523162842,-5.960000038146973,7.78000020980835,0.938720703125,-0.3187255859375,-0.0489501953125,0.121826171875,100560.796875,27.853832244873047,59169.0
0.17000000178813934,-5.920000076293945,7.860000133514404,-15.5625,35.375,-25.875,-8.4375,0.1875,-1.3125,0.14000000059604645,-6.0,7.739999771118164,0.9378662109375,-0.32135009765625,-0.0494384765625,0.121337890625,100560.4375,27.852426528930664,59209.0
0.25999999046325684,-6.099999904632568,7.909999847412109,-15.875,36.0625,-25.5,-8.625,-0.0625,-0.875,0.14000000059604645,-6.050000190734863,7.710000038146973,0.93701171875,-0.323974609375,-0.0499267578125,0.12091064453125,100560.515625,27.853689193725586,59249.0
0.20999999344348907,-6.119999885559082,7.739999771118164,-16.0,35.75,-26.6875,-7.625,0.25,-0.375,0.15000000596046448,-6.090000152587891,7.679999828338623,0.9361572265625,-0.3262939453125,-0.05029296875,0.12066650390625,100560.6171875,27.853490829467773,59289.0
0.11999999731779099,-6.0,7.769999980926514,-16.0,35.75,-26.6875,-6.8125,0.125,0.5,0.15000000596046448,-6.119999885559082,7.650000095367432,0.9354248046875,-0.3284912109375,-0.05059814453125,0.1207275390625,100560.984375,27.853904724121094,59329.0
-0.10000000149011612,-5.900000095367432,7.690000057220459,-16.25,35.375,-25.875,-11.1875,-3.1875,0.375,0.15000000596046448,-6.159999847412109,7.619999885559082,0.9342041015625,-0.33135986328125,-0.05133056640625,0.121826171875,100561.1171875,27.853652954101562,59369.0
-0.03999999910593033,-6.300000190734863,7.880000114440918,-16.6875,36.5,-24.6875,-10.25,-7.0625,8.5,0.14000000059604645,-6.21999979019165,7.579999923706055,0.9327392578125,-0.3341064453125,-0.05279541015625,0.12506103515625,100560.109375,27.8523006439209,59409.0
0.5699999928474426,-6.909999847412109,7.789999961853027,-15.5625,36.5,-23.5,-2.5625,-4.875,7.4375,0.14000000059604645,-6.25,7.550000190734863,0.93206787109375,-0.33477783203125,-0.0535888671875,0.127685546875,100560.1015625,27.85186767578125,59449.0
0.4699999988079071,-6.320000171661377,7.599999904632568,-15.5625,36.5,-23.5,-1.0625,-1.5625,3.0625,0.12999999523162842,-6.25,7.539999961853027,0.9317626953125,-0.33514404296875,-0.05377197265625,0.12860107421875,100560.3359375,27.852697372436523,59489.0
0.25,-6.190000057220459,7.510000228881836,-15.5625,37.1875,-24.6875,-2.9375,0.8125,0.5,0.12999999523162842,-6.260000228881836,7.539999961853027,0.931396484375,-0.33624267578125,-0.05352783203125,0.128662109375,100560.453125,27.852733612060547,59529.0
0.07999999821186066,-6.650000095367432,7.5,-15.5625,37.1875,-23.5,-2.0625,1.9375,0.8125,0.11999999731779099,-6.28000020980835,7.519999980926514,0.93121337890625,-0.3369140625,-0.052978515625,0.1285400390625,100560.5,27.852191925048828,59569.0
0.029999999329447746,-6.659999847412109,7.559999942779541,-15.875,36.75,-24.25,0.0625,0.4375,0.6875,0.10999999940395355,-6.28000020980835,7.519999980926514,0.93115234375,-0.3370361328125,-0.05279541015625,0.12872314453125,100560.7734375,27.85408592224121,59609.0
0.11999999731779099,-6.550000190734863,7.619999885559082,-15.875,36.5,-24.6875,1.75,0.3125,0.0625,0.10999999940395355,-6.28000020980835,7.519999980926514,0.93133544921875,-0.33648681640625,-0.052734375,0.12872314453125,100561.0625,27.85493278503418,59649.0
0.20000000298023224,-6.260000228881836,7.639999866485596,-15.875,36.5,-24.6875,2.0625,0.125,-0.1875,0.10999999940395355,-6.269999980926514,7.53000020980835,0.9315185546875,-0.33599853515625,-0.052734375,0.12872314453125,100560.890625,27.853851318359375,59689.0
0.10999999940395355,-6.679999828338623,7.71999979019165,-15.1875,36.0625,-24.25,4.1875,-0.8125,0.0625,0.10999999940395355,-6.260000228881836,7.539999961853027,0.93206787109375,-0.33441162109375,-0.052734375,0.12890625,100560.3203125,27.854175567626953,59729.0
0.12999999523162842,-6.579999923706055,7.670000076293945,-15.875,36.75,-24.25,10.125,-0.875,1.125,0.11999999731779099,-6.21999979019165,7.570000171661377,0.93310546875,-0.331298828125,-0.05255126953125,0.12957763671875,100560.3671875,27.853851318359375,59769.0
0.07999999821186066,-6.420000076293945,7.71999979019165,-16.25,37.5625,-23.875,12.0,-1.8125,2.3125,0.10999999940395355,-6.159999847412109,7.619999885559082,0.93426513671875,-0.32757568359375,-0.05230712890625,0.1307373046875,100560.6015625,27.854751586914062,59809.0
0.3499999940395355,-6.710000038146973,7.71999979019165,-15.5625,36.0625,-25.5,15.4375,-1.0625,2.1875,0.10999999940395355,-6.119999885559082,7.659999847412109,0.9361572265625,-0.32208251953125,-0.05145263671875,0.13116455078125,100561.265625,27.854284286499023,59849.0
0.09000000357627869,-7.090000152587891,7.909999847412109,-15.5625,36.0625,-25.5,25.9375,1.5,-2.1875,0.10999999940395355,-6.010000228881836,7.739999771118164,0.9398193359375,-0.31201171875,-0.04986572265625,0.130126953125,100561.7421875,27.855653762817383,59889.0
0.10999999940395355,-6.440000057220459,8.039999961853027,-15.1875,35.375,-25.875,40.8125,4.25,-8.25,0.11999999731779099,-5.769999980926514,7.920000076293945,0.94451904296875,-0.298828125,-0.0477294921875,0.12774658203125,100560.8984375,27.854969024658203,59929.0
0.07000000029802322,-5.139999866485596,8.109999656677246,-16.1875,35.375,-26.6875,38.625,1.3125,-8.6875,0.14000000059604645,-5.539999961853027,8.079999923706055,0.94873046875,-0.2862548828125,-0.04638671875,0.12554931640625,100560.625,27.85329246520996,59969.0
0.20000000298023224,-5.269999980926514,7.909999847412109,-15.75,34.5625,-27.375,38.3125,1.5625,-8.0,0.1599999964237213,-5.329999923706055,8.220000267028809,0.95263671875,-0.27392578125,-0.04547119140625,0.1240234375,100560.9453125,27.853759765625,60009.0
0.5899999737739563,-5.809999942779541,8.460000038146973,-17.25,34.25,-28.1875,37.8125,-1.9375,-5.4375,0.1899999976158142,-5.170000076293945,8.319999694824219,0.95550537109375,-0.2642822265625,-0.04486083984375,0.123046875,100561.3359375,27.854103088378906,60049.0
0.25,-5.78000020980835,8.319999694824219,-17.25,34.25,-28.1875,45.1875,2.6875,-7.0,0.20000000298023224,-4.929999828338623,8.470000267028809,0.9599609375,-0.24884033203125,-0.0428466796875,0.1214599609375,100561.0703125,27.85668182373047,60089.0
0.30000001192092896,-5.46999979019165,8.449999809265137,-15.75,32.5,-30.1875,56.0,-2.0625,-6.375,0.23000000417232513,-4.539999961853027,8.680000305175781,0.9661865234375,-0.22491455078125,-0.041259765625,0.11932373046875,100561.2734375,27.85745620727539,60129.0
0.2800000011920929,-5.230000019073486,8.729999542236328,-16.5625,30.25,-29.375,64.8125,1.0,-10.875,0.25999999046325684,-4.159999847412109,8.869999885559082,0.9715576171875,-0.20233154296875,-0.039306640625,0.11669921875,100560.4375,27.855743408203125,60169.0
0.38999998569488525,-4.659999847412109,8.789999961853027,-15.75,29.5,-33.0625,74.6875,-0.75,-10.75,0.30000001192092896,-3.7100000381469727,9.069999694824219,0.97705078125,-0.17572021484375,-0.037109375,0.1142578125,100560.8671875,27.857330322265625,60209.0
0.20000000298023224,-3.200000047683716,8.890000343322754,-16.1875,27.0,-33.75,88.375,-1.875,-10.125,0.3199999928474426,-3.309999942779541,9.220000267028809,0.98101806640625,-0.15386962890625,-0.03564453125,0.1126708984375,100560.953125,27.856788635253906,60249.0
0.4300000071525574,-2.3499999046325684,9.149999618530273,-16.1875,27.0,-33.75,79.375,-2.0,-7.9375,0.36000001430511475,-2.7799999713897705,9.390000343322754,0.98504638671875,-0.12738037109375,-0.03375244140625,0.11114501953125,100561.2109375,27.859853744506836,60289.0
0.30000001192092896,-1.7300000190734863,9.270000457763672,-15.75,24.0,-37.0625,76.4375,-4.1875,-3.5625,0.38999998569488525,-2.1600000858306885,9.550000190734863,0.988037109375,-0.10198974609375,-0.03253173828125,0.11114501953125,100561.1171875,27.86098861694336,60329.0
0.7900000214576721,-1.4299999475479126,9.359999656677246,-16.6875,21.1875,-38.25,70.1875,-4.9375,0.25,0.41999998688697815,-1.7000000476837158,9.640000343322754,0.9901123046875,-0.07843017578125,-0.03118896484375,0.1121826171875,100560.7578125,27.86241340637207,60369.0
0.6499999761581421,-1.1399999856948853,9.470000267028809,-16.6875,19.0625,-39.0,69.0625,-1.75,2.875,0.4300000071525574,-1.3600000143051147,9.699999809265137,0.99151611328125,-0.055419921875,-0.029052734375,0.114013671875,100560.2109375,27.862340927124023,60409.0
0.5799999833106995,-1.059999942779541,9.329999923706055,-16.25,17.5625,-40.1875,67.5625,-0.0625,4.75,0.4399999976158142,-0.9200000166893005,9.75,0.9923095703125,-0.0328369140625,-0.0264892578125,0.11627197265625,100561.3203125,27.86573028564453,60449.0
0.1899999976158142,0.20999999344348907,9.510000228881836,-16.25,17.5625,-40.1875,70.0,0.875,2.5,0.4300000071525574,-0.46000000834465027,9.779999732971191,0.99273681640625,-0.00994873046875,-0.0238037109375,0.1175537109375,100561.8125,27.866559982299805,60489.0
0.38999998569488525,0.23999999463558197,9.720000267028809,-17.375,15.0,-41.0,57.625,-4.25,0.75,0.44999998807907104,-0.05000000074505806,9.789999961853027,0.99267578125,0.01422119140625,-0.02264404296875,0.1180419921875,100561.8125,27.867172241210938,60529.0
0.47999998927116394,0.11999999731779099,9.680000305175781,-17.0,11.6875,-41.75,59.375,-2.5,-3.625,0.4699999988079071,0.3199999928474426,9.779999732971191,0.992431640625,0.0296630859375,-0.021484375,0.1171875,100561.734375,27.864757537841797,60569.0
0.44999998807907104,0.3700000047683716,9.479999542236328,-15.75,9.875,-43.0,65.125,-3.25,-5.3125,0.49000000953674316,0.7300000190734863,9.760000228881836,0.99176025390625,0.051513671875,-0.02001953125,0.1158447265625,100561.9140625,27.864089965820312,60609.0
0.6299999952316284,1.9600000381469727,9.489999771118164,-16.5625,8.1875,-43.0625,63.8125,-3.5,-5.875,0.5099999904632568,1.1699999570846558,9.720000267028809,0.99066162109375,0.072509765625,-0.0185546875,0.1141357421875,100561.859375,27.86416244506836,60649.0
0.6100000143051147,1.4600000381469727,9.65999984741211,-16.5625,8.1875,-43.0625,54.5625,-1.875,-6.125,0.5199999809265137,1.5399999618530273,9.65999984741211,0.9893798828125,0.0909423828125,-0.01690673828125,0.11236572265625,100561.4140625,27.865964889526367,60689.0
0.5699999928474426,1.190000057220459,9.369999885559082,-15.5,4.5,-42.5625,59.375,-0.1875,-5.4375,0.5199999809265137,1.909999966621399,9.600000381469727,0.9874267578125,0.11151123046875,-0.014404296875,0.11083984375,100562.0078125,27.868452072143555,60729.0
0.6800000071525574,1.4700000286102295,8.920000076293945,-15.5,3.0,-43.0625,70.4375,0.375,-4.75,0.5099999904632568,2.3399999141693115,9.5,0.98468017578125,0.13519287109375,-0.0113525390625,0.1094970703125,100561.5,27.86802101135254,60769.0
0.6299999952316284,4.079999923706055,8.890000343322754,-15.75,0.75,-43.875,74.4375,2.9375,-3.125,0.49000000953674316,2.819999933242798,9.369999885559082,0.981201171875,0.158935546875,-0.0074462890625,0.1090087890625,100560.9375,27.867694854736328,60809.0
0.46000000834465027,4.409999847412109,9.140000343322754,-15.5,-2.0625,-44.6875,52.6875,4.875,-0.875,0.46000000834465027,3.2100000381469727,9.25,0.9783935546875,0.17559814453125,-0.00396728515625,0.10894775390625,100560.7890625,27.86859703063965,60849.0
0.3700000047683716,3.640000104904175,9.25,-15.5,-2.0625,-44.6875,39.625,4.4375,-2.5625,0.4300000071525574,3.4800000190734863,9.149999618530273,0.97607421875,0.18853759765625,-0.0009765625,0.10833740234375,100560.5703125,27.86985969543457,60889.0
0.47999998927116394,4.139999866485596,8.8100004196167,-15.75,-5.0,-43.0625,43.1875,2.125,-3.6875,0.4000000059604645,3.7300000190734863,9.050000190734863,0.97332763671875,0.20281982421875,0.00164794921875,0.1072998046875,100561.0078125,27.871950149536133,60929.0
0.3199999928474426,5.159999847412109,8.850000381469727,-15.0625,-6.0625,-43.1875,37.625,2.6875,-3.5,0.3799999952316284,3.990000009536743,8.9399995803833,0.970947265625,0.21429443359375,0.0040283203125,0.1063232421875,100560.4609375,27.87122917175293,60969.0
0.3199999928474426,4.820000171661377,8.770000457763672,-14.75,-7.875,-42.375,24.5625,1.875,-1.25,0.36000001430511475,4.159999847412109,8.869999885559082,0.96893310546875,0.22344970703125,0.005859375,0.1060791015625,100560.9296875,27.871824264526367,61009.0
0.3100000023841858,5.460000038146973,8.8100004196167,-15.0625,-8.375,-43.5625,15.0625,0.6875,-0.5,0.3499999940395355,4.300000190734863,8.800000190734863,0.9678955078125,0.22772216796875,0.00653076171875,0.1060791015625,100561.0078125,27.8716983795166,61049.0
0.30000001192092896,4.739999771118164,8.789999961853027,-15.0625,-8.375,-43.5625,0.3125,0.6875,-0.9375,0.3400000035762787,4.340000152587891,8.779999732971191,0.96795654296875,0.22772216796875,0.00665283203125,0.1058349609375,100560.78125,27.870454788208008,61089.0
0.28999999165534973,4.449999809265137,8.8100004196167,-15.0625,-9.375,-42.375,-3.3125,-0.6875,-1.1875,0.3400000035762787,4.320000171661377,8.789999961853027,0.96826171875,0.2265625,0.00640869140625,0.1053466796875,100561.453125,27.873554229736328,61129.0
0.4399999976158142,4.340000152587891,8.729999542236328,-14.75,-9.0,-43.1875,-5.1875,-2.0,-1.6875,0.3499999940395355,4.300000190734863,8.800000190734863,0.96875,0.224853515625,0.00567626953125,0.1046142578125,100561.5078125,27.872995376586914,61169.0
0.46000000834465027,4.190000057220459,8.800000190734863,-14.0,-9.0,-43.1875,-6.8125,-0.875,-1.375,0.3499999940395355,4.260000228881836,8.819999694824219,0.96929931640625,0.22259521484375,0.00531005859375,0.104248046875,100561.890625,27.874311447143555,61209.0
0.3499999940395355,3.7799999713897705,8.850000381469727,-14.375,-8.5625,-43.0625,-4.75,-0.4375,-0.625,0.3499999940395355,4.21999979019165,8.84000015258789,0.96966552734375,0.22113037109375,0.0052490234375,0.10406494140625,100561.7578125,27.874149322509766,61249.0
0.41999998688697815,3.859999895095825,8.789999961853027,-14.375,-8.5625,-43.0625,-1.25,0.375,0.375,0.3499999940395355,4.199999809265137,8.850000381469727,0.9698486328125,0.22027587890625,0.00506591796875,0.104248046875,100560.9140625,27.873445510864258,61289.0
0.33000001311302185,4.010000228881836,8.899999618530273,-14.375,-7.875,-43.0625,-3.75,0.1875,0.6875,0.3499999940395355,4.179999828338623,8.850000381469727,0.9700927734375,0.218994140625,0.0048828125,0.10443115234375,100560.40625,27.87348175048828,61329.0
0.3100000023841858,3.819999933242798,8.890000343322754,-16.1875,-8.25,-42.6875,-1.8125,-0.375,0.125,0.3499999940395355,4.170000076293945,8.859999656677246,0.97027587890625,0.21820068359375,0.0047607421875,0.1043701171875,100560.359375,27.872941970825195,61369.0
0.3100000023841858,3.950000047683716,8.850000381469727,-14.0,-8.5625,-43.0625,0.5625,-0.9375,-0.6875,0.3499999940395355,4.159999847412109,8.869999885559082,0.9703369140625,0.21820068359375,0.0045166015625,0.10394287109375,100560.75,27.87312126159668,61409.0
0.2800000011920929,4.199999809265137,8.90999984741211,-15.0625,-7.875,-43.5,-1.625,-2.6875,-2.125,0.36000001430511475,4.150000095367432,8.869999885559082,0.97052001953125,0.21783447265625,0.00384521484375,0.10308837890625,100560.1171875,27.872671127319336,61449.0
0.4000000059604645,4.050000190734863,8.869999885559082,-15.0625,-7.875,-43.5,-2.125,-2.875,-2.4375,0.3700000047683716,4.139999866485596,8.869999885559082,0.97076416015625,0.21722412109375,0.0030517578125,0.1021728515625,100559.8671875,27.87117576599121,61489.0
0.4399999976158142,3.990000009536743,8.84000015258789,-14.375,-9.0,-42.6875,-0.875,-1.625,-1.375,0.3799999952316284,4.130000114440918,8.880000114440918,0.97088623046875,0.21685791015625,0.0025634765625,0.10162353515625,100559.609375,27.86948013305664,61529.0
0.44999998807907104,4.059999942779541,8.880000114440918,-14.75,-8.25,-43.5,-2.0,-1.25,-1.0,0.3799999952316284,4.119999885559082,8.880000114440918,0.9710693359375,0.2161865234375,0.0020751953125,0.10137939453125,100559.796875,27.86937141418457,61569.0
0.47999998927116394,3.9100000858306885,8.930000305175781,-14.75,-8.25,-43.0625,-1.875,0.0,-0.0625,0.38999998569488525,4.110000133514404,8.890000343322754,0.97125244140625,0.21539306640625,0.001953125,0.1014404296875,100559.9921875,27.868127822875977,61609.0
0.41999998688697815,3.9100000858306885,8.899999618530273,-14.75,-8.25,-43.0625,-0.625,-0.1875,-0.125,0.38999998569488525,4.099999904632568,8.890000343322754,0.9713134765625,0.21502685546875,0.0018310546875,0.1014404296875,100560.1640625,27.867767333984375,61649.0
0.4099999964237213,4.199999809265137,8.90999984741211,-15.0625,-7.875,-44.25,-3.0,0.0625,0.5625,0.38999998569488525,4.090000152587891,8.899999618530273,0.9715576171875,0.2139892578125,0.001708984375,0.1015625,100560.3359375,27.866361618041992,61689.0
0.38999998569488525,3.8299999237060547,8.930000305175781,-16.1875,-8.5625,-43.5,-2.9375,0.0,0.625,0.38999998569488525,4.070000171661377,8.90999984741211,0.97174072265625,0.21307373046875,0.0015869140625,0.10174560546875,100560.296875,27.865297317504883,61729.0
0.4099999964237213,3.8399999141693115,8.819999694824219,-13.75,-5.75,-45.375,-0.9375,-0.25,0.8125,0.38999998569488525,4.059999942779541,8.90999984741211,0.9718017578125,0.21258544921875,0.00146484375,0.10205078125,100560.5,27.86506462097168,61769.0
0.33000001311302185,3.8299999237060547,8.970000267028809,-13.375,-5.375,-45.1875,-2.4375,-0.25,0.875,0.38999998569488525,4.050000190734863,8.920000076293945,0.97198486328125,0.211669921875,0.00103759765625,0.102294921875,100560.2578125,27.864900588989258,61809.0
0.49000000953674316,3.680000066757202,9.0,-13.375,-5.375,-45.1875,-0.125,-1.25,0.375,0.4000000059604645,4.03000020980835,8.930000305175781,0.9720458984375,0.2113037109375,0.00048828125,0.102294921875,100559.6953125,27.864198684692383,61849.0
0.44999998807907104,3.9000000953674316,8.899999618530273,-13.0625,-5.5,-45.0625,1.875,-0.75,-0.375,0.4099999964237213,4.03000020980835,8.920000076293945,0.97198486328125,0.21173095703125,0.00042724609375,0.102294921875,100559.734375,27.86309814453125,61889.0
0.3799999952316284,3.990000009536743,8.890000343322754,-13.0625,-4.6875,-45.875,0.25,-0.375,-0.4375,0.4099999964237213,4.03000020980835,8.920000076293945,0.97198486328125,0.21173095703125,0.00042724609375,0.10223388671875,100559.234375,27.861116409301758,61929.0
0.41999998688697815,3.799999952316284,8.899999618530273,-13.1875,-5.0625,-45.0,1.0625,0.0625,0.1875,0.4099999964237213,4.039999961853027,8.920000076293945,0.97186279296875,0.21221923828125,0.00048828125,0.10223388671875,100559.5,27.8619441986084,61969.0
0.44999998807907104,4.119999885559082,8.880000114440918,-13.1875,-5.0625,-45.75,1.25,0.0,-0.1875,0.4099999964237213,4.039999961853027,8.920000076293945,0.9718017578125,0.21240234375,0.00048828125,0.10223388671875,100559.7734375,27.861404418945312,62009.0
0.4699999988079071,4.050000190734863,8.899999618530273,-13.1875,-5.0625,-45.75,-0.875,0.0625,-0.0625,0.4099999964237213,4.039999961853027,8.920000076293945,0.971923828125,0.21197509765625,0.00042724609375,0.10223388671875,100559.671875,27.86214256286621,62049.0
0.41999998688697815,3.950000047683716,8.90999984741211,-13.5,-4.6875,-45.375,-1.875,-0.1875,-0.1875,0.4099999964237213,4.03000020980835,8.920000076293945,0.9720458984375,0.21136474609375,0.0003662109375,0.10223388671875,100560.1015625,27.865028381347656,62089.0
0.5099999904632568,3.9100000858306885,8.899999618530273,-13.5,-5.0625,-45.0,-1.5,0.125,0.4375,0.4099999964237213,4.019999980926514,8.930000305175781,0.97216796875,0.210693359375,0.00030517578125,0.102294921875,100560.21875,27.864866256713867,62129.0
0.4300000071525574,3.819999933242798,8.960000038146973,-13.5,-5.1875,-45.375,-1.9375,0.3125,0.625,0.4099999964237213,4.010000228881836,8.930000305175781,0.97235107421875,0.2099609375,0.00018310546875,0.10235595703125,100559.796875,27.864757537841797,62169.0
0.3799999952316284,3.7200000286102295,8.920000076293945,-12.75,-4.0625,-44.5625,-1.6875,0.25,0.1875,0.4099999964237213,4.0,8.9399995803833,0.97247314453125,0.20947265625,0.0001220703125,0.10235595703125,100559.625,27.865243911743164,62209.0
0.41999998688697815,3.7699999809265137,8.9399995803833,-12.75,-4.0625,-44.5625,0.9375,-0.8125,-0.0625,0.41999998688697815,3.990000009536743,8.9399995803833,0.972412109375,0.20953369140625,-0.0001220703125,0.102294921875,100559.2265625,27.866758346557617,62249.0
0.46000000834465027,3.8299999237060547,8.920000076293945,-14.25,-5.5625,-45.375,1.25,-0.8125,-0.125,0.41999998688697815,3.990000009536743,8.9399995803833,0.97235107421875,0.2099609375,-0.00042724609375,0.10223388671875,100559.109375,27.86906623840332,62289.0
0.4699999988079071,3.8499999046325684,8.869999885559082,-13.25,-4.0625,-45.75,2.125,-0.8125,0.0,0.4300000071525574,4.0,8.9399995803833,0.97222900390625,0.21063232421875,-0.00048828125,0.10223388671875,100559.4296875,27.868471145629883,62329.0
0.44999998807907104,4.099999904632568,8.90999984741211,-14.25,-4.75,-45.375,1.625,-0.3125,-0.0625,0.4300000071525574,4.010000228881836,8.930000305175781,0.97216796875,0.21087646484375,-0.00048828125,0.10223388671875,100559.703125,27.868614196777344,62369.0
0.41999998688697815,4.010000228881836,8.9399995803833,-13.875,-4.875,-45.75,-0.8125,0.0625,0.125,0.4300000071525574,4.010000228881836,8.930000305175781,0.97222900390625,0.21063232421875,-0.0006103515625,0.10223388671875,100559.1875,27.868127822875977,62409.0
0.5099999904632568,4.010000228881836,8.899999618530273,-13.875,-4.875,-45.75,-0.5,-0.5625,-0.3125,0.4300000071525574,4.010000228881836,8.930000305175781,0.97222900390625,0.2105712890625,-0.0006103515625,0.10223388671875,100559.6640625,27.868940353393555,62449.0
0.44999998807907104,3.940000057220459,8.920000076293945,-15.0,-5.6875,-46.1875,-1.8125,-0.0625,0.125,0.4300000071525574,4.0,8.930000305175781,0.97235107421875,0.2099609375,-0.00067138671875,0.10223388671875,100559.5703125,27.872419357299805,62489.0
0.4099999964237213,3.7200000286102295,8.920000076293945,-13.5,-5.25,-45.375,-1.75,0.1875,0.25,0.4300000071525574,3.990000009536743,8.9399995803833,0.97247314453125,0.20928955078125,-0.00079345703125,0.10223388671875,100559.6875,27.872724533081055,62529.0
0.46000000834465027,3.8399999141693115,8.90999984741211,-13.5,-5.1875,-45.75,0.4375,-0.25,-0.1875,0.4300000071525574,3.9800000190734863,8.9399995803833,0.9725341796875,0.209228515625,-0.00079345703125,0.10223388671875,100559.8125,27.872941970825195,62569.0
0.5199999809265137,4.010000228881836,8.9399995803833,-12.75,-4.75,-45.75,-0.5,-0.4375,0.125,0.4300000071525574,3.9800000190734863,8.9399995803833,0.9725341796875,0.208984375,-0.0008544921875,0.10223388671875,100560.265625,27.87427520751953,62609.0
0.4399999976158142,3.75,8.989999771118164,-12.75,-4.75,-45.75,-0.875,0.375,0.4375,0.4300000071525574,3.9800000190734863,8.949999809265137,0.97265625,0.2086181640625,-0.00091552734375,0.102294921875,100560.1484375,27.874113082885742,62649.0
0.46000000834465027,4.0,8.899999618530273,-13.875,-5.5625,-45.0,1.3125,-0.375,0.0625,0.4300000071525574,3.9800000190734863,8.949999809265137,0.97259521484375,0.2088623046875,-0.00091552734375,0.102294921875,100560.078125,27.875141143798828,62689.0
0.47999998927116394,4.050000190734863,8.9399995803833,-13.875,-5.5625,-45.75,-1.75,-0.125,0.1875,0.4300000071525574,3.9700000286102295,8.949999809265137,0.97271728515625,0.208251953125,-0.0009765625,0.102294921875,100560.1953125,27.8770694732666,62729.0
0.44999998807907104,3.6600000858306885,8.90999984741211,-13.875,-4.75,-46.1875,-2.625,0.3125,0.1875,0.4300000071525574,3.9600000381469727,8.960000038146973,0.97283935546875,0.20758056640625,-0.00103759765625,0.102294921875,100560.0234375,27.876222610473633,62769.0
0.4300000071525574,3.740000009536743,8.930000305175781,-13.1875,-4.875,-45.375,-0.4375,0.0,0.0,0.4300000071525574,3.950000047683716,8.960000038146973,0.972900390625,0.2073974609375,-0.00103759765625,0.102294921875,100559.4921875,27.874996185302734,62809.0
0.44999998807907104,3.7100000381469727,8.949999809265137,-13.1875,-4.875,-45.375,0.875,-0.125,-0.3125,0.4300000071525574,3.950000047683716,8.960000038146973,0.972900390625,0.20751953125,-0.0010986328125,0.102294921875,100559.7265625,27.87696075439453,62849.0
0.5199999809265137,3.9800000190734863,8.930000305175781,-13.1875,-4.5625,-46.5625,2.8125,-0.25,0.0,0.4300000071525574,3.9600000381469727,8.949999809265137,0.97271728515625,0.208251953125,-0.0009765625,0.102294921875,100559.515625,27.877286911010742,62889.0
0.4099999964237213,3.869999885559082,8.9399995803833,-13.1875,-5.25,-45.375,0.5625,0.5,0.5625,0.4300000071525574,3.9700000286102295,8.949999809265137,0.97265625,0.20843505859375,-0.0009765625,0.102294921875,100559.5546875,27.878673553466797,62929.0
0.5400000214576721,3.880000114440918,8.90999984741211,-13.5,-4.5625,-45.375,1.4375,-0.4375,-0.1875,0.4300000071525574,3.9700000286102295,8.949999809265137,0.97259521484375,0.2088623046875,-0.0009765625,0.10235595703125,100559.6640625,27.88029670715332,62969.0
0.4699999988079071,4.110000133514404,8.9399995803833,-14.1875,-5.25,-44.1875,0.25,-0.0625,-0.1875,0.4300000071525574,3.9800000190734863,8.949999809265137,0.97259521484375,0.20892333984375,-0.0009765625,0.10235595703125,100559.21875,27.879791259765625,63009.0
0.5099999904632568,3.8499999046325684,8.899999618530273,-14.1875,-5.25,-44.1875,-1.625,0.0625,0.1875,0.4300000071525574,3.9700000286102295,8.949999809265137,0.97265625,0.2083740234375,-0.0010986328125,0.10235595703125,100559.515625,27.881126403808594,63049.0
0.5299999713897705,3.859999895095825,8.890000343322754,-13.1875,-5.6875,-45.75,-0.625,0.0625,0.375,0.4300000071525574,3.9700000286102295,8.949999809265137,0.97271728515625,0.208251953125,-0.0010986328125,0.10235595703125,100559.4453125,27.881559371948242,63089.0
0.4300000071525574,3.880000114440918,8.920000076293945,-14.1875,-4.875,-45.0,-1.0,0.3125,0.1875,0.4300000071525574,3.9600000381469727,8.949999809265137,0.9727783203125,0.20794677734375,-0.00115966796875,0.10235595703125,100559.296875,27.88188362121582,63129.0
0.44999998807907104,3.7899999618530273,8.930000305175781,-13.5,-4.875,-45.875,-0.6875,0.3125,0.0625,0.4300000071525574,3.9600000381469727,8.949999809265137,0.9727783203125,0.207763671875,-0.00115966796875,0.10235595703125,100560.0703125,27.883289337158203,63169.0
0.44999998807907104,3.950000047683716,8.920000076293945,-14.1875,-4.875,-45.75,-1.0625,0.0625,0.0,0.4300000071525574,3.950000047683716,8.960000038146973,0.972900390625,0.207275390625,-0.001220703125,0.10235595703125,100559.984375,27.883180618286133,63209.0
0.5299999713897705,3.8499999046325684,8.979999542236328,-14.1875,-4.875,-45.75,-1.6875,0.0,0.0,0.4399999976158142,3.940000057220459,8.960000038146973,0.9730224609375,0.20660400390625,-0.0013427734375,0.1024169921875,100560.546875,27.88541603088379,63249.0
0.4099999964237213,3.7799999713897705,8.930000305175781,-13.5,-4.875,-45.75,-0.25,0.625,0.4375,0.4300000071525574,3.930000066757202,8.970000267028809,0.97308349609375,0.2064208984375,-0.001220703125,0.1025390625,100560.796875,27.885921478271484,63289.0
0.47999998927116394,3.809999942779541,8.949999809265137,-14.5625,-5.25,-45.375,-0.625,-0.125,0.3125,0.4300000071525574,3.930000066757202,8.970000267028809,0.97308349609375,0.20623779296875,-0.00128173828125,0.1025390625,100561.0546875,27.885740280151367,63329.0
0.44999998807907104,3.7799999713897705,8.989999771118164,-13.1875,-5.25,-45.375,-0.375,0.0625,0.375,0.4300000071525574,3.930000066757202,8.970000267028809,0.97314453125,0.20611572265625,-0.00128173828125,0.1025390625,100561.1484375,27.885597229003906,63369.0
