Accel_X,Accel_Y,Accel_Z,Magneto_X,Magneto_Y,Magneto_Z,Gyro_X,Gyro_Y,Gyro_Z,Gravity_X,Gravity_Y,Gravity_Z,Quaternion_W,Quaternion_X,Quaternion_Y,Quaternion_Z,Pressure,Temperature,Time
1.0700000524520874,0.25999999046325684,9.75,-18.1875,10.5625,-42.6875,-12.3125,-0.75,-4.75,0.8199999928474426,0.41999998688697815,9.760000228881836,0.90740966796875,0.00042724609375,-0.0467529296875,-0.41766357421875,83064.8515625,23.358642578125,92024.0
1.159999966621399,0.20999999344348907,9.8100004196167,-18.1875,10.5625,-42.6875,-8.6875,-0.9375,-3.6875,0.8299999833106995,0.36000001430511475,9.760000228881836,0.9068603515625,-0.00164794921875,-0.0460205078125,-0.41888427734375,100582.5703125,26.957508087158203,92064.0
1.1299999952316284,-0.03999999910593033,9.789999961853027,-18.1875,9.875,-42.6875,-5.6875,-0.375,-1.375,0.8399999737739563,0.30000001192092896,9.760000228881836,0.9066162109375,-0.00433349609375,-0.04547119140625,-0.41949462890625,100581.6640625,26.975971221923828,92104.0
1.0499999523162842,0.15000000596046448,9.699999809265137,-18.875,10.5625,-41.5625,-1.1875,1.25,1.5,0.8399999737739563,0.2800000011920929,9.760000228881836,0.90655517578125,-0.005126953125,-0.04522705078125,-0.41961669921875,100580.7890625,27.00885772705078,92144.0
0.9700000286102295,0.25999999046325684,9.649999618530273,-18.1875,10.1875,-40.6875,0.9375,1.9375,3.3125,0.8299999833106995,0.2800000011920929,9.760000228881836,0.90679931640625,-0.00482177734375,-0.04486083984375,-0.419189453125,100579.6953125,27.045637130737305,92184.0
0.8700000047683716,0.38999998569488525,9.699999809265137,-17.75,10.1875,-41.875,1.8125,2.875,4.5,0.8199999928474426,0.28999999165534973,9.760000228881836,0.9073486328125,-0.00396728515625,-0.0443115234375,-0.4180908203125,100578.3203125,27.07956886291504,92224.0
0.6499999761581421,0.550000011920929,9.710000038146973,-17.75,10.1875,-41.875,0.0625,1.9375,4.0,0.800000011920929,0.28999999165534973,9.760000228881836,0.90777587890625,-0.00341796875,-0.04364013671875,-0.41717529296875,100577.2890625,27.11250877380371,92264.0
0.8899999856948853,0.3700000047683716,9.710000038146973,-18.5,10.5625,-42.25,-1.6875,0.375,3.4375,0.800000011920929,0.2800000011920929,9.760000228881836,0.90826416015625,-0.00384521484375,-0.04339599609375,-0.4161376953125,100576.296875,27.142419815063477,92304.0
0.8100000023841858,0.2800000011920929,9.75,-18.1875,11.375,-41.875,-2.375,2.6875,5.1875,0.7900000214576721,0.27000001072883606,9.770000457763672,0.90899658203125,-0.0042724609375,-0.0423583984375,-0.41461181640625,100575.203125,27.16773223876953,92344.0
0.8199999928474426,0.1599999964237213,9.75,-18.1875,11.6875,-41.5,-2.0625,2.0,8.25,0.7799999713897705,0.25,9.770000457763672,0.91046142578125,-0.0047607421875,-0.041259765625,-0.4114990234375,100574.796875,27.19075584411621,92384.0
0.9100000262260437,0.12999999523162842,9.760000228881836,-18.5,11.375,-41.5,0.375,3.3125,11.0625,0.7599999904632568,0.23999999463558197,9.770000457763672,0.91156005859375,-0.00457763671875,-0.04052734375,-0.4091796875,100574.203125,27.212047576904297,92424.0
0.8600000143051147,0.17000000178813934,9.770000457763672,-18.5,11.375,-41.5,2.125,4.5625,13.25,0.7400000095367432,0.23999999463558197,9.770000457763672,0.91339111328125,-0.003662109375,-0.03948974609375,-0.4051513671875,100574.046875,27.2303466796875,92464.0
0.6600000262260437,0.3199999928474426,9.729999542236328,-17.75,11.6875,-42.25,3.0625,4.375,13.6875,0.7099999785423279,0.25,9.770000457763672,0.915283203125,-0.0023193359375,-0.03851318359375,-0.40093994140625,100573.4765625,27.244626998901367,92504.0
0.75,0.49000000953674316,9.680000305175781,-17.375,12.0,-41.875,-0.6875,1.125,11.4375,0.699999988079071,0.25,9.770000457763672,0.91693115234375,-0.00225830078125,-0.03814697265625,-0.397216796875,100573.125,27.255929946899414,92544.0
0.8500000238418579,0.4000000059604645,9.720000267028809,-17.0625,12.375,-42.25,0.25,4.5625,14.625,0.6800000071525574,0.25,9.770000457763672,0.91888427734375,-0.00177001953125,-0.037109375,-0.39276123046875,100573.0625,27.266712188720703,92584.0
0.5699999928474426,0.33000001311302185,9.819999694824219,-17.0625,12.375,-42.25,-1.0,6.125,15.5,0.6499999761581421,0.23999999463558197,9.779999732971191,0.92120361328125,-0.0013427734375,-0.03515625,-0.387451171875,100573.0234375,27.277673721313477,92624.0
0.6299999952316284,0.18000000715255737,9.760000228881836,-15.5625,11.6875,-43.0625,-1.0,5.3125,14.125,0.6200000047683716,0.23000000417232513,9.779999732971191,0.9228515625,-0.0010986328125,-0.0333251953125,-0.3836669921875,100572.4375,27.285316467285156,92664.0
0.5799999833106995,0.20000000298023224,9.729999542236328,-17.5,12.0,-42.6875,0.5625,6.0,14.5625,0.5799999833106995,0.2199999988079071,9.779999732971191,0.9248046875,-0.00048828125,-0.031494140625,-0.379150390625,100571.78125,27.289337158203125,92704.0
0.47999998927116394,0.20999999344348907,9.770000457763672,-16.6875,12.375,-42.25,0.6875,5.375,16.0,0.5400000214576721,0.2199999988079071,9.779999732971191,0.92681884765625,0.000244140625,-0.02978515625,-0.37432861328125,100571.8515625,27.295215606689453,92744.0
0.41999998688697815,0.20999999344348907,9.729999542236328,-16.0,12.75,-42.25,1.875,5.375,14.5,0.5099999904632568,0.2199999988079071,9.789999961853027,0.92864990234375,0.00140380859375,-0.0283203125,-0.36993408203125,100571.2890625,27.299633026123047,92784.0
0.23000000417232513,0.27000001072883606,9.8100004196167,-16.0,12.75,-42.25,1.5625,4.875,9.9375,0.47999998927116394,0.23000000417232513,9.789999961853027,0.92987060546875,0.00250244140625,-0.0269775390625,-0.366943359375,100571.25,27.30467987060547,92824.0
0.3700000047683716,0.2199999988079071,9.800000190734863,-15.1875,12.75,-42.6875,1.6875,2.25,5.3125,0.46000000834465027,0.23999999463558197,9.789999961853027,0.9306640625,0.0032958984375,-0.0263671875,-0.36492919921875,100571.3203125,27.310773849487305,92864.0
0.28999999165534973,0.3799999952316284,9.779999732971191,-14.75,13.1875,-41.875,2.6875,2.1875,2.3125,0.4399999976158142,0.25999999046325684,9.789999961853027,0.9310302734375,0.00445556640625,-0.02593994140625,-0.364013671875,100571.6953125,27.31475830078125,92904.0
0.3199999928474426,0.46000000834465027,9.75,-14.1875,12.0,-42.6875,1.25,1.125,0.5625,0.4300000071525574,0.27000001072883606,9.789999961853027,0.93109130859375,0.00531005859375,-0.02569580078125,-0.36383056640625,100571.8359375,27.317174911499023,92944.0
0.33000001311302185,0.38999998569488525,9.770000457763672,-14.5,12.75,-43.0625,-1.375,0.4375,0.3125,0.41999998688697815,0.27000001072883606,9.789999961853027,0.93115234375,0.0052490234375,-0.025390625,-0.36376953125,100572.15625,27.32072639465332,92984.0
0.4300000071525574,0.30000001192092896,9.800000190734863,-14.5,12.75,-43.0625,-1.75,-0.1875,-0.4375,0.41999998688697815,0.27000001072883606,9.789999961853027,0.9312744140625,0.0047607421875,-0.02520751953125,-0.36346435546875,100571.8359375,27.32395362854004,93024.0
0.3400000035762787,0.33000001311302185,9.770000457763672,-14.1875,13.1875,-42.6875,-1.625,0.3125,-1.8125,0.41999998688697815,0.25,9.789999961853027,0.93109130859375,0.0042724609375,-0.02496337890625,-0.3638916015625,100571.7109375,27.326387405395508,93064.0
0.3799999952316284,0.23000000417232513,9.75,-14.1875,12.75,-43.0625,-2.3125,-1.375,-2.5,0.4300000071525574,0.23999999463558197,9.789999961853027,0.9307861328125,0.00341796875,-0.02508544921875,-0.3646240234375,100572.2734375,27.3276309967041,93104.0
0.5299999713897705,0.1599999964237213,9.75,-14.75,12.375,-42.375,-2.1875,-1.5,-2.0,0.4300000071525574,0.23000000417232513,9.789999961853027,0.93048095703125,0.00262451171875,-0.02532958984375,-0.36541748046875,100571.890625,27.328550338745117,93144.0
0.5,0.20000000298023224,9.75,-15.1875,13.5,-43.5625,-1.3125,-0.4375,-1.375,0.4399999976158142,0.2199999988079071,9.789999961853027,0.93035888671875,0.002197265625,-0.0252685546875,-0.36578369140625,100572.2109375,27.331562042236328,93184.0
0.47999998927116394,0.17000000178813934,9.75,-15.1875,13.5,-43.5625,-1.5625,-0.25,-1.6875,0.4399999976158142,0.20999999344348907,9.789999961853027,0.9300537109375,0.001708984375,-0.02508544921875,-0.36651611328125,100572.0234375,27.33381462097168,93224.0
0.5199999809265137,0.15000000596046448,9.75,-15.5625,13.1875,-43.5625,-0.9375,-0.4375,-2.625,0.4399999976158142,0.20000000298023224,9.789999961853027,0.92974853515625,0.00146484375,-0.0250244140625,-0.36737060546875,100571.765625,27.33551025390625,93264.0
0.4399999976158142,0.17000000178813934,9.770000457763672,-15.1875,13.5,-42.6875,-0.25,-0.0625,-3.5,0.4399999976158142,0.20000000298023224,9.789999961853027,0.92926025390625,0.00146484375,-0.0250244140625,-0.3685302734375,100571.8046875,27.335041046142578,93304.0
0.4399999976158142,0.2199999988079071,9.760000228881836,-15.1875,12.0,-42.375,-0.25,-0.3125,-4.25,0.4399999976158142,0.20000000298023224,9.789999961853027,0.92840576171875,0.00152587890625,-0.0250244140625,-0.37066650390625,100572.4609375,27.337583541870117,93344.0
0.4000000059604645,0.20999999344348907,9.789999961853027,-16.25,13.5,-43.0625,-0.125,-0.375,-5.25,0.4399999976158142,0.20000000298023224,9.789999961853027,0.92767333984375,0.00152587890625,-0.0250244140625,-0.37255859375,100572.1484375,27.3354549407959,93384.0
0.4300000071525574,0.15000000596046448,9.819999694824219,-16.25,13.5,-43.0625,0.9375,0.0625,-5.8125,0.4399999976158142,0.20999999344348907,9.789999961853027,0.9268798828125,0.0018310546875,-0.02508544921875,-0.37457275390625,100571.703125,27.334426879882812,93424.0
0.23000000417232513,0.18000000715255737,9.890000343322754,-15.1875,12.0,-42.375,3.9375,1.625,-7.0,0.41999998688697815,0.23999999463558197,9.789999961853027,0.9249267578125,0.00433349609375,-0.0250244140625,-0.37939453125,100572.2265625,27.335960388183594,93504.0
0.28999999165534973,0.550000011920929,9.640000343322754,-14.1875,12.0,-43.0625,4.5,-2.6875,-5.0,0.41999998688697815,0.2800000011920929,9.789999961853027,0.92431640625,0.00537109375,-0.0263671875,-0.3807373046875,100572.21875,27.33538246154785,93544.0
0.5,0.6700000166893005,9.720000267028809,-15.25,12.75,-42.25,-0.3125,-4.0625,-3.6875,0.44999998807907104,0.28999999165534973,9.789999961853027,0.92376708984375,0.00469970703125,-0.02764892578125,-0.3819580078125,100571.78125,27.335527420043945,93584.0
0.7200000286102295,0.3700000047683716,9.8100004196167,-15.25,12.75,-42.25,-2.9375,-4.5625,-4.5625,0.47999998927116394,0.2800000011920929,9.789999961853027,0.923095703125,0.0032958984375,-0.02886962890625,-0.3834228515625,100571.6875,27.33794403076172,93624.0
0.7900000214576721,0.28999999165534973,9.75,-15.1875,12.375,-41.875,-2.5,-2.75,-4.75,0.5099999904632568,0.25999999046325684,9.779999732971191,0.9224853515625,0.0020751953125,-0.02978515625,-0.3848876953125,100571.9375,27.340341567993164,93664.0
0.7400000095367432,0.17000000178813934,9.699999809265137,-16.25,12.375,-43.5625,-2.0,-0.8125,-3.5,0.5199999809265137,0.25,9.779999732971191,0.92205810546875,0.00128173828125,-0.02996826171875,-0.38592529296875,100572.125,27.341548919677734,93704.0
0.6299999952316284,0.1599999964237213,9.75,-16.0,12.375,-42.6875,-0.6875,0.3125,-1.3125,0.5299999713897705,0.23999999463558197,9.779999732971191,0.92193603515625,0.00103759765625,-0.030029296875,-0.38623046875,100571.96875,27.34073829650879,93744.0
0.5699999928474426,0.20999999344348907,9.779999732971191,-16.6875,12.375,-42.25,0.375,0.75,0.6875,0.5299999713897705,0.23999999463558197,9.779999732971191,0.9219970703125,0.00103759765625,-0.030029296875,-0.385986328125,100572.1796875,27.342432022094727,93784.0
0.5899999737739563,0.25,9.710000038146973,-16.6875,12.375,-42.25,0.9375,0.625,2.0625,0.5299999713897705,0.23999999463558197,9.779999732971191,0.92230224609375,0.0013427734375,-0.03009033203125,-0.38531494140625,100572.6328125,27.34369468688965,93824.0
0.5699999928474426,0.20999999344348907,9.770000457763672,-16.25,12.75,-43.5625,0.8125,-0.0625,3.5,0.5299999713897705,0.25,9.779999732971191,0.9228515625,0.0015869140625,-0.03021240234375,-0.38397216796875,100573.03125,27.34580421447754,93864.0
0.5600000023841858,0.1599999964237213,9.8100004196167,-16.25,12.375,-43.0625,1.75,0.5,8.9375,0.5299999713897705,0.25,9.779999732971191,0.92413330078125,0.00213623046875,-0.03033447265625,-0.38092041015625,100572.8046875,27.346813201904297,93904.0
0.3199999928474426,0.27000001072883606,9.84000015258789,-15.5625,12.375,-41.875,3.625,0.9375,16.625,0.5299999713897705,0.27000001072883606,9.779999732971191,0.9263916015625,0.003173828125,-0.030517578125,-0.375244140625,100573.125,27.348129272460938,93944.0
0.23000000417232513,0.46000000834465027,9.779999732971191,-14.75,13.1875,-43.0625,3.25,-2.875,26.9375,0.5299999713897705,0.28999999165534973,9.779999732971191,0.92987060546875,0.003662109375,-0.03155517578125,-0.36651611328125,100572.6875,27.348562240600586,93984.0
0.5299999713897705,0.25999999046325684,9.779999732971191,-14.75,13.1875,-43.0625,1.0625,-5.375,33.5,0.5600000023841858,0.28999999165534973,9.779999732971191,0.9339599609375,0.00311279296875,-0.0333251953125,-0.35577392578125,100572.5390625,27.34886932373047,94024.0
0.5199999809265137,0.25,9.800000190734863,-15.5625,12.75,-43.0625,2.375,-4.3125,38.75,0.6000000238418579,0.2800000011920929,9.779999732971191,0.93853759765625,0.0029296875,-0.0350341796875,-0.3433837890625,100572.453125,27.349679946899414,94064.0
0.550000011920929,0.30000001192092896,9.75,-15.5625,12.75,-41.875,2.8125,-5.3125,42.6875,0.6399999856948853,0.28999999165534973,9.779999732971191,0.943359375,0.00274658203125,-0.03704833984375,-0.32965087890625,100572.4375,27.349716186523438,94104.0
0.6499999761581421,0.2199999988079071,9.75,-13.0,13.875,-42.6875,2.25,-5.3125,47.125,0.6899999976158142,0.2800000011920929,9.770000457763672,0.9493408203125,0.00250244140625,-0.03912353515625,-0.31182861328125,100573.203125,27.351465225219727,94144.0
0.7300000190734863,0.17000000178813934,9.75,-14.875,13.1875,-43.0625,3.75,-6.5,49.4375,0.7300000190734863,0.2800000011920929,9.770000457763672,0.9542236328125,0.00244140625,-0.0416259765625,-0.29620361328125,100573.4921875,27.353357315063477,94184.0
0.8899999856948853,0.23000000417232513,9.699999809265137,-14.875,13.1875,-43.0625,4.0625,-6.125,47.3125,0.7900000214576721,0.2800000011920929,9.770000457763672,0.95892333984375,0.00250244140625,-0.04400634765625,-0.28033447265625,100573.5546875,27.355358123779297,94224.0
0.9100000262260437,0.1599999964237213,9.680000305175781,-13.0,13.875,-42.375,4.0625,-5.25,42.8125,0.8299999833106995,0.2800000011920929,9.760000228881836,0.962646484375,0.002685546875,-0.046142578125,-0.266845703125,100573.265625,27.353971481323242,94264.0
0.9599999785423279,0.25999999046325684,9.6899995803833,-14.5,14.5625,-42.375,4.625,-4.4375,38.375,0.8700000047683716,0.28999999165534973,9.760000228881836,0.96588134765625,0.00311279296875,-0.04815673828125,-0.25445556640625,100573.375,27.355810165405273,94304.0
1.1299999952316284,0.27000001072883606,9.720000267028809,-14.5,15.0,-43.5625,4.375,-2.3125,34.875,0.9100000262260437,0.30000001192092896,9.75,0.9686279296875,0.00360107421875,-0.04937744140625,-0.2435302734375,100573.4453125,27.35604476928711,94344.0
1.059999942779541,0.25999999046325684,9.670000076293945,-14.5,15.0,-43.5625,4.3125,-1.3125,34.5625,0.9300000071525574,0.30000001192092896,9.75,0.971435546875,0.0042724609375,-0.050048828125,-0.23187255859375,100573.8828125,27.357378005981445,94384.0
0.9200000166893005,0.17000000178813934,9.729999542236328,-13.0,14.5625,-42.6875,4.125,0.625,40.9375,0.9300000071525574,0.30000001192092896,9.75,0.9747314453125,0.005126953125,-0.05029296875,-0.2176513671875,100574.140625,27.357215881347656,94424.0
1.059999942779541,0.20999999344348907,9.819999694824219,-12.25,15.6875,-41.5625,6.5625,1.5,48.625,0.9399999976158142,0.3100000023841858,9.75,0.97821044921875,0.00653076171875,-0.0504150390625,-0.201416015625,100574.5703125,27.359973907470703,94464.0
1.0199999809265137,0.25,9.680000305175781,-12.25,15.375,-41.5625,8.1875,2.5,51.0625,0.9300000071525574,0.33000001311302185,9.75,0.98150634765625,0.008544921875,-0.05029296875,-0.1844482421875,100574.2265625,27.359739303588867,94504.0
0.9399999976158142,0.4000000059604645,9.670000076293945,-11.1875,16.375,-42.375,8.5,2.8125,50.0,0.9300000071525574,0.3499999940395355,9.75,0.9844970703125,0.01055908203125,-0.0501708984375,-0.167724609375,100574.078125,27.359577178955078,94544.0
1.059999942779541,0.5299999713897705,9.680000305175781,-11.1875,16.375,-42.375,7.0,1.75,47.25,0.9300000071525574,0.3700000047683716,9.75,0.9869384765625,0.0118408203125,-0.05010986328125,-0.1524658203125,100574.2734375,27.361164093017578,94584.0
1.1100000143051147,0.4300000071525574,9.699999809265137,-10.5,15.0,-43.0625,4.75,3.125,42.4375,0.9300000071525574,0.3799999952316284,9.75,0.9891357421875,0.01287841796875,-0.04962158203125,-0.13787841796875,100573.953125,27.36294937133789,94624.0
1.1100000143051147,0.47999998927116394,9.699999809265137,-9.375,16.375,-42.6875,2.75,4.0,39.625,0.9200000166893005,0.3799999952316284,9.75,0.990966796875,0.013427734375,-0.048583984375,-0.124267578125,100573.4921875,27.363706588745117,94664.0
1.0399999618530273,0.38999998569488525,9.770000457763672,-8.6875,16.375,-43.0625,2.375,5.75,36.75,0.8899999856948853,0.3700000047683716,9.75,0.99249267578125,0.01397705078125,-0.0469970703125,-0.11199951171875,100573.1953125,27.36311149597168,94704.0
1.0299999713897705,0.4699999988079071,9.75,-7.5625,17.1875,-41.875,2.6875,7.3125,34.6875,0.8700000047683716,0.3700000047683716,9.760000228881836,0.99395751953125,0.0146484375,-0.044677734375,-0.09912109375,100573.328125,27.363832473754883,94744.0
0.8500000238418579,0.5099999904632568,9.6899995803833,-7.5625,17.1875,-41.875,2.0,9.375,34.8125,0.8199999928474426,0.3700000047683716,9.760000228881836,0.99530029296875,0.0150146484375,-0.04180908203125,-0.0863037109375,100572.625,27.364933013916016,94784.0
0.5299999713897705,0.5299999713897705,9.739999771118164,-6.75,16.75,-42.6875,-0.25,8.0,33.5,0.7599999904632568,0.3499999940395355,9.770000457763672,0.99639892578125,0.01458740234375,-0.03936767578125,-0.07330322265625,100572.75,27.366355895996094,94824.0
0.5699999928474426,0.41999998688697815,9.710000038146973,-5.6875,16.75,-42.6875,-2.1875,6.0,34.4375,0.7300000190734863,0.3199999928474426,9.770000457763672,0.9974365234375,0.01373291015625,-0.037109375,-0.05975341796875,100572.6640625,27.365671157836914,94864.0
0.36000001430511475,0.3799999952316284,9.819999694824219,-5.0,17.5625,-43.875,-2.6875,5.75,37.125,0.6800000071525574,0.28999999165534973,9.770000457763672,0.99822998046875,0.01251220703125,-0.03485107421875,-0.04718017578125,100572.4140625,27.366897583007812,94904.0
0.20999999344348907,0.25999999046325684,9.890000343322754,-4.75,17.5625,-42.375,-2.875,2.6875,38.375,0.6600000262260437,0.25999999046325684,9.779999732971191,0.9986572265625,0.01153564453125,-0.033935546875,-0.0369873046875,100571.9765625,27.366662979125977,94944.0
0.3100000023841858,0.20000000298023224,9.84000015258789,-4.75,17.5625,-42.375,-3.0,-1.1875,42.0,0.6499999761581421,0.23000000417232513,9.779999732971191,0.99908447265625,0.0101318359375,-0.0340576171875,-0.02294921875,100572.1484375,27.369384765625,94984.0
0.4699999988079071,0.27000001072883606,9.760000228881836,-5.0625,17.5625,-43.5625,-2.25,-3.8125,46.25,0.6800000071525574,0.18000000715255737,9.779999732971191,0.99932861328125,0.00848388671875,-0.03564453125,-0.00286865234375,100572.3125,27.369674682617188,95024.0
0.5799999833106995,0.33000001311302185,9.630000114440918,-4.25,18.25,-43.5625,-3.8125,-6.1875,52.9375,0.7200000286102295,0.14000000059604645,9.770000457763672,0.9991455078125,0.00634765625,-0.03778076171875,0.01593017578125,100572.4453125,27.36933135986328,95064.0
0.5400000214576721,0.23000000417232513,9.680000305175781,-2.875,17.5,-43.5625,-7.25,-6.0625,60.1875,0.75,0.09000000357627869,9.770000457763672,0.99853515625,0.00299072265625,-0.03997802734375,0.03704833984375,100573.0078125,27.370214462280273,95104.0
0.6399999856948853,0.05000000074505806,9.680000305175781,-2.75,19.0,-43.5625,-8.0625,-7.625,66.5,0.7900000214576721,0.0,9.770000457763672,0.9976806640625,0.0003662109375,-0.0419921875,0.0540771484375,100573.203125,27.371458053588867,95144.0
0.8399999737739563,-0.10999999940395355,9.65999984741211,-2.75,19.0,-43.5625,-8.8125,-7.6875,69.3125,0.8399999737739563,-0.07999999821186066,9.760000228881836,0.9959716796875,-0.00335693359375,-0.04461669921875,0.0775146484375,100573.515625,27.374126434326172,95184.0
1.409999966621399,0.5400000214576721,9.569999694824219,-1.0625,19.375,-42.375,-10.5,-3.8125,68.25,0.8799999952316284,-0.20999999344348907,9.760000228881836,0.993896484375,-0.00811767578125,-0.0458984375,0.10028076171875,100573.90625,27.376127243041992,95224.0
1.0299999713897705,0.05999999865889549,9.8100004196167,-1.375,19.6875,-43.0625,-18.0625,3.375,63.8125,0.8500000238418579,-0.36000001430511475,9.760000228881836,0.99151611328125,-0.01568603515625,-0.04522705078125,0.1207275390625,100573.7890625,27.377046585083008,95264.0
0.7099999785423279,-1.2400000095367432,9.970000267028809,1.75,20.0625,-43.0625,-22.6875,5.25,50.8125,0.8100000023841858,-0.5,9.75,0.98895263671875,-0.02362060546875,-0.04425048828125,0.13934326171875,100573.640625,27.37830924987793,95304.0
0.5699999928474426,-1.090000033378601,9.75,1.0625,20.1875,-41.5625,-11.9375,2.625,39.375,0.7699999809265137,-0.6299999952316284,9.75,0.98699951171875,-0.02813720703125,-0.04364013671875,0.15203857421875,100573.09375,27.37868881225586,95344.0
0.3400000035762787,-1.100000023841858,9.720000267028809,1.0625,20.1875,-41.5625,-7.0625,1.125,32.8125,0.7400000095367432,-0.7099999785423279,9.75,0.98516845703125,-0.03204345703125,-0.042724609375,0.16302490234375,100572.84375,27.37666893005371,95384.0
0.3499999940395355,-1.2599999904632568,9.720000267028809,2.875,21.5625,-41.875,-4.3125,-3.0,27.75,0.7099999785423279,-0.7900000214576721,9.739999771118164,0.98345947265625,-0.034912109375,-0.0428466796875,0.1724853515625,100572.7734375,27.375137329101562,95424.0
0.5199999809265137,-0.9800000190734863,9.65999984741211,3.5625,21.5625,-41.5625,0.875,-6.5,22.6875,0.7099999785423279,-0.8199999928474426,9.739999771118164,0.9820556640625,-0.03497314453125,-0.04443359375,0.179931640625,100573.0390625,27.372846603393555,95464.0
0.8399999737739563,-1.0199999809265137,9.65999984741211,4.6875,22.0,-41.875,1.75,-6.6875,17.8125,0.75,-0.8299999833106995,9.739999771118164,0.980712890625,-0.0341796875,-0.04638671875,0.186767578125,100573.0546875,27.373441696166992,95504.0
0.9800000190734863,-0.7599999904632568,9.720000267028809,4.0,22.0,-42.375,3.875,-5.6875,11.625,0.7799999713897705,-0.8100000023841858,9.739999771118164,0.9798583984375,-0.03277587890625,-0.048095703125,0.19091796875,100572.640625,27.371566772460938,95544.0
1.059999942779541,-0.8500000238418579,9.739999771118164,4.0,22.0,-42.375,3.75,-3.1875,11.125,0.8100000023841858,-0.800000011920929,9.729999542236328,0.9791259765625,-0.03155517578125,-0.049072265625,0.19476318359375,100572.6953125,27.37362289428711,95584.0
0.9900000095367432,-0.7599999904632568,9.729999542236328,4.0,22.0,-42.375,4.1875,-0.6875,12.625,0.8199999928474426,-0.7799999713897705,9.739999771118164,0.97833251953125,-0.0302734375,-0.049072265625,0.19879150390625,100572.609375,27.375171661376953,95624.0
0.9399999976158142,-0.6000000238418579,9.630000114440918,3.5,21.25,-41.1875,3.125,0.125,11.125,0.8199999928474426,-0.7599999904632568,9.739999771118164,0.97760009765625,-0.029296875,-0.04876708984375,0.2025146484375,100572.8359375,27.37519073486328,95664.0
0.8799999952316284,-0.8100000023841858,9.699999809265137,5.0625,21.0,-42.6875,3.875,2.625,11.0,0.8100000023841858,-0.7400000095367432,9.739999771118164,0.9766845703125,-0.0281982421875,-0.04766845703125,0.20745849609375,100572.6875,27.37519073486328,95704.0
0.7400000095367432,-0.5099999904632568,9.65999984741211,5.0625,21.0,-41.5625,4.125,1.75,7.3125,0.7900000214576721,-0.7200000286102295,9.739999771118164,0.97613525390625,-0.02703857421875,-0.0467529296875,0.21038818359375,100572.953125,27.376920700073242,95744.0
0.6200000047683716,-0.5099999904632568,9.770000457763672,5.0625,21.0,-41.5625,2.0,0.875,2.375,0.7699999809265137,-0.699999988079071,9.75,0.97613525390625,-0.02618408203125,-0.046142578125,0.210693359375,100572.71875,27.378219604492188,95784.0
0.7099999785423279,-0.41999998688697815,9.760000228881836,4.25,21.25,-41.875,2.0,-0.1875,-1.5625,0.7699999809265137,-0.6800000071525574,9.75,0.97625732421875,-0.0252685546875,-0.04583740234375,0.2103271484375,100572.7578125,27.378616333007812,95824.0
0.75,-0.4399999976158142,9.710000038146973,5.0,21.0,-42.375,0.5625,-0.25,-1.5,0.7699999809265137,-0.6600000262260437,9.75,0.97637939453125,-0.02484130859375,-0.04571533203125,0.20977783203125,100572.8671875,27.379499435424805,95864.0
0.8399999737739563,-0.550000011920929,9.710000038146973,4.5625,20.5625,-42.6875,-0.75,0.75,-2.0,0.7699999809265137,-0.6600000262260437,9.75,0.97650146484375,-0.02490234375,-0.0455322265625,0.20904541015625,100572.625,27.37957191467285,95904.0
0.7099999785423279,-0.5899999737739563,9.710000038146973,4.25,21.0,-42.375,-0.8125,1.625,-3.9375,0.7599999904632568,-0.6600000262260437,9.75,0.97686767578125,-0.02520751953125,-0.04510498046875,0.20751953125,100573.0,27.381357192993164,95944.0
0.699999988079071,-0.6100000143051147,9.699999809265137,4.25,21.0,-42.375,-1.8125,1.8125,-4.875,0.75,-0.6700000166893005,9.75,0.97723388671875,-0.02581787109375,-0.044677734375,0.20574951171875,100572.8359375,27.380977630615234,95984.0
0.7900000214576721,-0.6600000262260437,9.6899995803833,4.25,20.1875,-41.875,-2.6875,2.1875,-6.125,0.7400000095367432,-0.6800000071525574,9.75,0.977783203125,-0.02667236328125,-0.044189453125,0.20306396484375,100571.9921875,27.380111694335938,96024.0
1.3600000143051147,-0.6100000143051147,9.640000343322754,3.875,21.0,-42.375,-1.375,5.25,-8.875,0.7200000286102295,-0.6899999976158142,9.75,0.97857666015625,-0.02752685546875,-0.04229736328125,0.19952392578125,100571.7265625,27.378887176513672,96064.0
0.9100000262260437,-0.6700000166893005,9.710000038146973,3.5,20.1875,-42.375,-1.8125,10.0,-19.3125,0.6700000166893005,-0.6899999976158142,9.75,0.98016357421875,-0.0284423828125,-0.039306640625,0.19219970703125,100571.515625,27.379119873046875,96104.0
0.44999998807907104,-1.0099999904632568,9.930000305175781,5.5,20.1875,-41.875,-0.3125,8.6875,-31.0,0.6200000047683716,-0.6899999976158142,9.760000228881836,0.982177734375,-0.02813720703125,-0.03692626953125,0.1822509765625,100571.8203125,27.379859924316406,96144.0
0.4399999976158142,-0.9900000095367432,9.819999694824219,5.5,20.1875,-41.875,6.6875,4.625,-49.0625,0.6000000238418579,-0.6399999856948853,9.760000228881836,0.98529052734375,-0.02557373046875,-0.03546142578125,0.165283203125,100572.015625,27.380435943603516,96184.0
0.5199999809265137,-0.7200000286102295,9.710000038146973,3.5625,21.0,-42.6875,10.9375,2.875,-57.8125,0.6000000238418579,-0.5600000023841858,9.770000457763672,0.98858642578125,-0.0216064453125,-0.0343017578125,0.14532470703125,100572.484375,27.38085174560547,96224.0
0.28999999165534973,-0.25,9.75,3.25,20.5625,-41.875,7.0,3.0,-68.8125,0.6000000238418579,-0.4699999988079071,9.770000457763672,0.99176025390625,-0.0186767578125,-0.03375244140625,0.12237548828125,100572.7578125,27.382905960083008,96264.0
0.20000000298023224,-0.28999999165534973,9.729999542236328,2.5625,21.0,-42.375,4.75,-1.4375,-65.8125,0.6200000047683716,-0.4099999964237213,9.770000457763672,0.99420166015625,-0.01617431640625,-0.03436279296875,0.10064697265625,100572.1484375,27.382131576538086,96304.0
0.5,-0.3700000047683716,9.670000076293945,2.5625,21.0,-42.375,6.1875,-3.25,-57.0,0.6499999761581421,-0.3499999940395355,9.770000457763672,0.99591064453125,-0.013427734375,-0.0355224609375,0.0819091796875,100571.9296875,27.382707595825195,96344.0
0.7300000190734863,-0.12999999523162842,9.670000076293945,1.375,20.1875,-42.6875,4.375,-2.5625,-47.1875,0.6800000071525574,-0.28999999165534973,9.770000457763672,0.9970703125,-0.01141357421875,-0.03643798828125,0.06646728515625,100572.4140625,27.383718490600586,96384.0
0.6299999952316284,-0.3199999928474426,9.779999732971191,0.5625,20.5625,-42.0,2.4375,-2.8125,-40.8125,0.699999988079071,-0.25,9.770000457763672,0.997802734375,-0.010009765625,-0.03765869140625,0.05389404296875,100572.2109375,27.38332176208496,96424.0
1.1200000047683716,-0.4000000059604645,9.739999771118164,0.6875,19.75,-42.6875,2.8125,-3.0,-41.3125,0.7400000095367432,-0.20999999344348907,9.770000457763672,0.9984130859375,-0.00830078125,-0.0384521484375,0.0400390625,100572.2265625,27.38416862487793,96464.0
0.9700000286102295,-0.07999999821186066,9.65999984741211,-3.0,19.5,-43.5625,4.5625,0.5,-41.125,0.7400000095367432,-0.1599999964237213,9.770000457763672,0.99896240234375,-0.00665283203125,-0.038330078125,0.0234375,100571.703125,27.384241104125977,96504.0
0.8600000143051147,-0.23000000417232513,9.770000457763672,-3.0,19.5,-43.5625,2.25,0.125,-45.6875,0.75,-0.11999999731779099,9.770000457763672,0.99920654296875,-0.00537109375,-0.0386962890625,0.00677490234375,100571.7265625,27.38600730895996,96544.0
1.100000023841858,-0.3499999940395355,9.770000457763672,-1.5,19.5,-41.5625,4.8125,0.9375,-62.0625,0.7599999904632568,-0.07999999821186066,9.770000457763672,0.9991455078125,-0.00323486328125,-0.038818359375,-0.01580810546875,100571.78125,27.38734245300293,96584.0
1.0,-0.27000001072883606,9.720000267028809,-3.6875,20.1875,-41.875,7.75,3.125,-74.8125,0.75,-0.009999999776482582,9.770000457763672,0.99835205078125,0.0001220703125,-0.03814697265625,-0.04241943359375,100571.2578125,27.387197494506836,96624.0
1.059999942779541,-0.12999999523162842,9.630000114440918,-4.875,19.0625,-42.6875,10.875,6.75,-78.9375,0.7200000286102295,0.07999999821186066,9.770000457763672,0.99700927734375,0.00494384765625,-0.03570556640625,-0.06854248046875,100570.9375,27.386493682861328,96664.0
0.6399999856948853,0.38999998569488525,9.770000457763672,-5.1875,18.75,-42.375,10.4375,9.0,-73.6875,0.6700000166893005,0.17000000178813934,9.779999732971191,0.99517822265625,0.00909423828125,-0.03289794921875,-0.09228515625,100571.0546875,27.387144088745117,96704.0
0.6600000262260437,0.3799999952316284,9.75,-5.1875,18.75,-42.375,7.0,7.625,-67.8125,0.6000000238418579,0.25,9.779999732971191,0.99285888671875,0.01226806640625,-0.0302734375,-0.11492919921875,100570.6015625,27.387611389160156,96744.0
0.5699999928474426,0.46000000834465027,9.699999809265137,-5.75,18.0,-44.25,5.125,8.375,-66.375,0.5199999809265137,0.33000001311302185,9.779999732971191,0.99005126953125,0.01495361328125,-0.0274658203125,-0.13702392578125,100570.1484375,27.38797378540039,96784.0
0.38999998569488525,0.5099999904632568,9.739999771118164,-6.5625,18.0,-42.6875,2.5625,7.1875,-65.4375,0.44999998807907104,0.3799999952316284,9.779999732971191,0.98663330078125,0.01666259765625,-0.02496337890625,-0.16009521484375,100570.46875,27.387088775634766,96824.0
0.5099999904632568,0.44999998807907104,9.720000267028809,-8.0625,15.75,-43.0625,1.0,6.0,-66.1875,0.4099999964237213,0.4000000059604645,9.779999732971191,0.98284912109375,0.01788330078125,-0.0224609375,-0.18231201171875,100570.7109375,27.386423110961914,96864.0
0.38999998569488525,0.3700000047683716,9.739999771118164,-8.5,15.875,-44.25,0.8125,7.125,-68.0,0.3499999940395355,0.4300000071525574,9.789999961853027,0.97943115234375,0.018798828125,-0.0203857421875,-0.1998291015625,100570.9921875,27.386493682861328,96904.0
0.23999999463558197,0.3100000023841858,9.789999961853027,-8.5,15.875,-44.25,1.625,6.625,-71.75,0.2800000011920929,0.44999998807907104,9.789999961853027,0.974365234375,0.02032470703125,-0.01788330078125,-0.223388671875,100570.515625,27.387144088745117,96944.0
0.25999999046325684,0.4699999988079071,9.739999771118164,-8.5,15.5625,-43.5625,3.5,7.3125,-69.4375,0.20000000298023224,0.49000000953674316,9.789999961853027,0.967041015625,0.0228271484375,-0.0145263671875,-0.25311279296875,100571.078125,27.3904972076416,96984.0
0.07000000029802322,0.49000000953674316,9.770000457763672,-10.375,14.375,-43.875,1.9375,8.3125,-66.25,0.11999999731779099,0.5099999904632568,9.789999961853027,0.96124267578125,0.02435302734375,-0.01165771484375,-0.27435302734375,100571.4453125,27.39013671875,97024.0
-0.05999999865889549,0.5299999713897705,9.789999961853027,-9.1875,13.6875,-44.25,1.3125,6.4375,-64.4375,0.07000000029802322,0.5199999809265137,9.789999961853027,0.95672607421875,0.0252685546875,-0.0098876953125,-0.28973388671875,100571.2265625,27.38871192932129,97064.0
-0.07000000029802322,0.5600000023841858,9.779999732971191,-11.375,13.6875,-43.6875,2.9375,4.75,-59.25,0.009999999776482582,0.5299999713897705,9.789999961853027,0.9505615234375,0.02685546875,-0.008056640625,-0.3092041015625,100571.0078125,27.389938354492188,97104.0
-0.12999999523162842,0.6600000262260437,9.739999771118164,-11.375,13.6875,-43.6875,3.9375,5.3125,-51.375,-0.029999999329447746,0.5600000023841858,9.789999961853027,0.94488525390625,0.02874755859375,-0.00634765625,-0.32611083984375,100570.8515625,27.3908748626709,97144.0
-0.25999999046325684,0.7699999809265137,9.739999771118164,-11.375,12.1875,-43.875,1.25,4.3125,-42.25,-0.09000000357627869,0.5699999928474426,9.779999732971191,0.9390869140625,0.0299072265625,-0.00433349609375,-0.34234619140625,100570.953125,27.39446258544922,97184.0
-0.27000001072883606,0.6800000071525574,9.770000457763672,-11.375,11.5625,-44.25,-0.875,1.75,-33.375,-0.11999999731779099,0.5699999928474426,9.779999732971191,0.93548583984375,0.0299072265625,-0.00347900390625,-0.35211181640625,100570.84375,27.393688201904297,97224.0
-0.20999999344348907,0.6399999856948853,9.770000457763672,-11.75,11.5625,-44.25,-1.1875,0.6875,-25.25,-0.14000000059604645,0.5699999928474426,9.779999732971191,0.93341064453125,0.02972412109375,-0.0030517578125,-0.3575439453125,100570.4140625,27.391939163208008,97264.0
-0.1899999976158142,0.6000000238418579,9.829999923706055,-12.875,11.1875,-44.6875,-1.5,-0.6875,-16.4375,-0.15000000596046448,0.550000011920929,9.779999732971191,0.93109130859375,0.0291748046875,-0.0029296875,-0.3636474609375,100570.171875,27.394102096557617,97304.0
-0.1899999976158142,0.6100000143051147,9.770000457763672,-12.875,11.1875,-44.6875,-1.0625,-1.9375,-8.6875,-0.15000000596046448,0.5400000214576721,9.789999961853027,0.93011474609375,0.028564453125,-0.00335693359375,-0.3660888671875,100570.0703125,27.39457130432129,97344.0
-0.1899999976158142,0.6200000047683716,9.75,-13.1875,12.5625,-44.6875,-1.625,-2.9375,-1.0,-0.12999999523162842,0.5400000214576721,9.789999961853027,0.9298095703125,0.0277099609375,-0.004150390625,-0.36700439453125,100570.5234375,27.396068572998047,97384.0
-0.07000000029802322,0.6100000143051147,9.739999771118164,-13.1875,11.1875,-43.5625,-2.4375,-4.625,4.625,-0.10000000149011612,0.5199999809265137,9.789999961853027,0.930419921875,0.02630615234375,-0.00537109375,-0.365478515625,100570.9140625,27.39662742614746,97424.0
0.05999999865889549,0.5199999809265137,9.819999694824219,-13.1875,11.6875,-44.6875,-2.6875,-5.0,7.375,-0.07000000029802322,0.5,9.789999961853027,0.9312744140625,0.02484130859375,-0.0067138671875,-0.3634033203125,100570.578125,27.39704132080078,97464.0
0.12999999523162842,0.4300000071525574,9.800000190734863,-14.6875,11.6875,-43.5625,-2.1875,-4.0,6.5,-0.029999999329447746,0.49000000953674316,9.789999961853027,0.9312744140625,0.0235595703125,-0.00799560546875,-0.3634033203125,100571.015625,27.399078369140625,97504.0
0.1899999976158142,0.44999998807907104,9.789999961853027,-14.6875,11.6875,-43.5625,-1.875,-2.25,3.75,0.0,0.47999998927116394,9.789999961853027,0.9317626953125,0.0225830078125,-0.00872802734375,-0.3623046875,100571.1484375,27.400609970092773,97544.0
0.10999999940395355,0.41999998688697815,9.770000457763672,-12.875,12.25,-43.875,-1.625,-1.25,-0.6875,0.0,0.46000000834465027,9.789999961853027,0.9315185546875,0.0218505859375,-0.00897216796875,-0.3629150390625,100570.5859375,27.40001678466797,97584.0
0.10999999940395355,0.41999998688697815,9.75,-14.0,12.6875,-43.0625,-1.375,-1.0625,-7.4375,0.009999999776482582,0.44999998807907104,9.789999961853027,0.93048095703125,0.02117919921875,-0.00921630859375,-0.36566162109375,100570.2734375,27.399005889892578,97624.0
0.15000000596046448,0.30000001192092896,9.760000228881836,-13.5625,11.25,-44.25,-2.3125,-1.4375,-19.0,0.019999999552965164,0.4399999976158142,9.789999961853027,0.92755126953125,0.02032470703125,-0.00933837890625,-0.373046875,100570.609375,27.398826599121094,97664.0
0.10000000149011612,0.23999999463558197,9.8100004196167,-13.1875,11.25,-44.25,-1.1875,-1.1875,-31.8125,0.019999999552965164,0.4300000071525574,9.789999961853027,0.9232177734375,0.01971435546875,-0.009521484375,-0.38372802734375,100570.5703125,27.399259567260742,97704.0
0.3199999928474426,0.30000001192092896,9.729999542236328,-13.1875,11.25,-44.25,0.6875,-1.6875,-45.375,0.019999999552965164,0.41999998688697815,9.789999961853027,0.91680908203125,0.0196533203125,-0.009765625,-0.398681640625,100570.3671875,27.399600982666016,97744.0
-0.05000000074505806,0.3499999940395355,9.800000190734863,-12.875,11.25,-42.6875,1.8125,-2.375,-58.375,0.009999999776482582,0.4300000071525574,9.789999961853027,0.90777587890625,0.01995849609375,-0.01031494140625,-0.4188232421875,100570.59375,27.400989532470703,97784.0
0.11999999731779099,0.4699999988079071,9.720000267028809,-14.375,9.5,-43.5625,1.1875,-1.9375,-64.6875,0.009999999776482582,0.4399999976158142,9.789999961853027,0.8984375,0.020263671875,-0.0106201171875,-0.43853759765625,100570.171875,27.40032196044922,97824.0
0.17000000178813934,0.41999998688697815,9.779999732971191,-15.0625,10.5,-43.875,0.1875,0.5,-65.5,0.0,0.4399999976158142,9.789999961853027,0.88836669921875,0.02044677734375,-0.01019287109375,-0.45855712890625,100570.3046875,27.401531219482422,97864.0
-0.009999999776482582,0.30000001192092896,9.850000381469727,-15.0625,9.5,-43.5625,-0.625,-0.25,-70.125,-0.009999999776482582,0.4399999976158142,9.789999961853027,0.877197265625,0.02044677734375,-0.009765625,-0.4796142578125,100570.7265625,27.401872634887695,97904.0
0.009999999776482582,0.3100000023841858,9.789999961853027,-15.0625,9.5,-43.5625,2.625,0.0625,-72.625,-0.029999999329447746,0.4399999976158142,9.789999961853027,0.865234375,0.02142333984375,-0.0096435546875,-0.50079345703125,100570.625,27.401548385620117,97944.0
0.009999999776482582,0.550000011920929,9.710000038146973,-15.75,9.0625,-43.875,2.625,1.6875,-70.5,-0.05999999865889549,0.46000000834465027,9.789999961853027,0.85223388671875,0.02264404296875,-0.00909423828125,-0.52264404296875,100570.875,27.400737762451172,97984.0
-0.029999999329447746,0.5699999928474426,9.739999771118164,-16.875,6.5,-43.875,0.9375,2.375,-67.0,-0.09000000357627869,0.4699999988079071,9.789999961853027,0.8402099609375,0.0234375,-0.008056640625,-0.54168701171875,100570.921875,27.400123596191406,98024.0
-0.2199999988079071,0.4399999976158142,9.789999961853027,-17.25,6.5,-43.875,0.25,1.125,-64.4375,-0.12999999523162842,0.46000000834465027,9.789999961853027,0.828125,0.023681640625,-0.0076904296875,-0.55999755859375,100571.0859375,27.401386260986328,98064.0
-0.6600000262260437,0.5199999809265137,9.869999885559082,-17.25,6.5,-43.875,1.5,-9.875,-67.125,-0.10999999940395355,0.4699999988079071,9.789999961853027,0.81500244140625,0.02239990234375,-0.01019287109375,-0.57891845703125,100570.9609375,27.401763916015625,98104.0
0.6299999952316284,0.699999988079071,9.6899995803833,-17.5625,5.375,-44.6875,-0.3125,-5.25,-66.4375,-0.07000000029802322,0.4699999988079071,9.789999961853027,0.80145263671875,0.02191162109375,-0.0108642578125,-0.5975341796875,100570.9375,27.402629852294922,98144.0
0.36000001430511475,0.5699999928474426,9.770000457763672,-17.25,3.5625,-44.375,0.75,3.625,-61.0625,-0.10000000149011612,0.4699999988079071,9.789999961853027,0.78900146484375,0.02294921875,-0.00982666015625,-0.61383056640625,100571.0234375,27.403261184692383,98184.0
0.009999999776482582,0.6600000262260437,9.729999542236328,-18.375,3.1875,-43.5625,-1.4375,9.0,-55.125,-0.15000000596046448,0.46000000834465027,9.789999961853027,0.77764892578125,0.0245361328125,-0.00689697265625,-0.628173828125,100570.40625,27.4025936126709,98224.0
-0.33000001311302185,0.5600000023841858,9.770000457763672,-18.375,2.5,-43.0625,-2.1875,8.5,-49.1875,-0.23000000417232513,0.4399999976158142,9.789999961853027,0.767333984375,0.02581787109375,-0.00384521484375,-0.64068603515625,100570.515625,27.404396057128906,98264.0
-0.38999998569488525,0.6100000143051147,9.770000457763672,-18.375,2.5,-43.0625,-2.6875,7.75,-43.0,-0.28999999165534973,0.41999998688697815,9.789999961853027,0.758544921875,0.02685546875,-0.0008544921875,-0.65106201171875,100570.234375,27.40459442138672,98304.0
-0.5899999737739563,0.4099999964237213,9.789999961853027,-17.25,1.75,-44.6875,-3.3125,4.875,-35.0,-0.3499999940395355,0.38999998569488525,9.789999961853027,0.7509765625,0.0272216796875,0.00140380859375,-0.65972900390625,100569.6796875,27.4041805267334,98344.0
-0.49000000953674316,0.47999998927116394,9.779999732971191,-17.25,1.0,-44.375,-2.6875,2.6875,-29.3125,-0.3799999952316284,0.3700000047683716,9.789999961853027,0.74444580078125,0.02728271484375,0.00299072265625,-0.6671142578125,100569.65625,27.40385627746582,98384.0
-0.6800000071525574,0.4099999964237213,9.850000381469727,-18.0,1.0,-43.875,-2.5,-0.3125,-29.0,-0.4000000059604645,0.3400000035762787,9.789999961853027,0.7379150390625,0.0269775390625,0.00384521484375,-0.67437744140625,100570.5859375,27.40533447265625,98424.0
-0.7599999904632568,0.7799999713897705,9.789999961853027,-16.5,0.5625,-43.1875,-3.125,-3.75,-29.4375,-0.4000000059604645,0.3199999928474426,9.789999961853027,0.73101806640625,0.02459716796875,0.00396728515625,-0.681884765625,100569.6953125,27.404722213745117,98464.0
-0.5600000023841858,0.6600000262260437,9.800000190734863,-16.5,0.5625,-43.1875,-10.1875,-9.125,-32.375,-0.3700000047683716,0.2800000011920929,9.789999961853027,0.72369384765625,0.019775390625,0.00445556640625,-0.6898193359375,100569.1875,27.404848098754883,98504.0
-0.3199999928474426,0.27000001072883606,9.84000015258789,-16.875,0.5625,-45.0625,-12.6875,-7.5625,-33.75,-0.30000001192092896,0.17000000178813934,9.800000190734863,0.71575927734375,0.01483154296875,0.0057373046875,-0.69818115234375,100569.53125,27.405513763427734,98544.0
-0.3199999928474426,-0.1599999964237213,9.829999923706055,-17.5625,0.25,-44.25,-10.125,-8.125,-38.125,-0.25,0.09000000357627869,9.800000190734863,0.70684814453125,0.0106201171875,0.0062255859375,-0.707275390625,100569.640625,27.406002044677734,98584.0
-0.4000000059604645,0.07999999821186066,9.789999961853027,-17.25,0.25,-43.0625,-7.375,-7.75,-41.5,-0.20000000298023224,0.029999999329447746,9.800000190734863,0.6966552734375,0.00677490234375,0.0062255859375,-0.71734619140625,100569.4375,27.40637969970703,98624.0
-0.20000000298023224,0.029999999329447746,9.8100004196167,-18.375,-0.5,-43.5625,-8.125,-10.125,-47.1875,-0.1599999964237213,0.0,9.800000190734863,0.68463134765625,0.00213623046875,0.00592041015625,-0.7288818359375,100569.5390625,27.405513763427734,98664.0
0.17000000178813934,0.019999999552965164,9.670000076293945,-18.375,-0.5,-43.5625,-9.0625,-10.375,-52.0,-0.09000000357627869,-0.07000000029802322,9.800000190734863,0.6715087890625,-0.00250244140625,0.00628662109375,-0.740966796875,100569.390625,27.407155990600586,98704.0
0.18000000715255737,-0.27000001072883606,9.880000114440918,-18.375,-0.375,-43.5625,-9.5625,-7.875,-53.375,-0.009999999776482582,-0.15000000596046448,9.800000190734863,0.65850830078125,-0.0067138671875,0.00653076171875,-0.75250244140625,100569.703125,27.40955352783203,98744.0
0.3100000023841858,0.33000001311302185,9.739999771118164,-19.0625,-0.75,-44.375,-7.125,-4.375,-46.125,0.029999999329447746,-0.20000000298023224,9.800000190734863,0.64764404296875,-0.010009765625,0.008056640625,-0.7618408203125,100570.0234375,27.408472061157227,98784.0
0.36000001430511475,-0.029999999329447746,9.800000190734863,-18.5625,-1.1875,-43.0625,-15.25,-2.0,-36.8125,0.05000000074505806,-0.28999999165534973,9.800000190734863,0.6390380859375,-0.013671875,0.0115966796875,-0.76898193359375,100570.546875,27.409372329711914,98824.0
0.17000000178813934,-0.3499999940395355,9.779999732971191,-17.875,-1.5625,-43.0625,-13.1875,0.25,-28.5625,0.05999999865889549,-0.36000001430511475,9.789999961853027,0.6334228515625,-0.0157470703125,0.013916015625,-0.7735595703125,100570.5390625,27.410057067871094,98864.0
0.5699999928474426,-0.23000000417232513,9.6899995803833,-17.875,-1.5625,-43.0625,-11.125,0.0,-30.8125,0.07000000029802322,-0.4399999976158142,9.789999961853027,0.62518310546875,-0.018310546875,0.0167236328125,-0.78009033203125,100569.9921875,27.411733627319336,98904.0
0.6499999761581421,-0.5199999809265137,9.670000076293945,-19.0,-1.5625,-44.25,-13.5,4.0,-36.5625,0.05999999865889549,-0.5400000214576721,9.789999961853027,0.61212158203125,-0.0203857421875,0.02215576171875,-0.7901611328125,100570.2578125,27.412979125976562,98944.0
0.5400000214576721,-0.8399999737739563,9.729999542236328,-19.375,-2.0,-43.875,-11.75,8.375,-44.8125,0.019999999552965164,-0.6200000047683716,9.779999732971191,0.5997314453125,-0.02008056640625,0.0264892578125,-0.79949951171875,100569.828125,27.41160774230957,98984.0
0.10999999940395355,-0.7900000214576721,9.739999771118164,-17.875,-2.25,-43.1875,-6.125,10.875,-44.0625,-0.019999999552965164,-0.6700000166893005,9.779999732971191,0.58795166015625,-0.0186767578125,0.0299072265625,-0.80810546875,100570.3203125,27.412887573242188,99024.0
0.029999999329447746,-0.9200000166893005,9.789999961853027,-16.875,-3.0625,-43.875,-4.875,9.875,-39.9375,-0.05000000074505806,-0.6899999976158142,9.779999732971191,0.57916259765625,-0.01763916015625,0.031982421875,-0.81439208984375,100570.6484375,27.413862228393555,99064.0
-0.15000000596046448,-0.800000011920929,9.770000457763672,-16.875,-3.0625,-43.875,0.125,9.5,-29.625,-0.10000000149011612,-0.7099999785423279,9.770000457763672,0.57110595703125,-0.015380859375,0.0335693359375,-0.820068359375,100570.890625,27.41573715209961,99104.0
-0.2199999988079071,-0.6499999761581421,9.789999961853027,-17.5625,-3.0625,-43.875,2.4375,6.375,-23.375,-0.14000000059604645,-0.699999988079071,9.779999732971191,0.564697265625,-0.013427734375,0.033935546875,-0.824462890625,100570.4296875,27.41598892211914,99144.0
-0.17000000178813934,-0.47999998927116394,9.770000457763672,-17.25,-3.0625,-45.0625,2.875,4.9375,-20.125,-0.17000000178813934,-0.6800000071525574,9.779999732971191,0.5589599609375,-0.01171875,0.03387451171875,-0.82843017578125,100570.46875,27.41790008544922,99184.0
-0.07000000029802322,-0.5199999809265137,9.770000457763672,-18.0,-3.75,-44.25,1.4375,4.125,-20.5625,-0.18000000715255737,-0.6700000166893005,9.779999732971191,0.55316162109375,-0.010498046875,0.033935546875,-0.832275390625,100570.671875,27.420495986938477,99224.0
-0.25,-0.5799999833106995,9.819999694824219,-15.75,-4.5,-44.25,0.5625,3.875,-21.8125,-0.20000000298023224,-0.6600000262260437,9.779999732971191,0.546630859375,-0.009521484375,0.03436279296875,-0.83660888671875,100570.109375,27.421289443969727,99264.0
-0.27000001072883606,-0.6899999976158142,9.829999923706055,-15.75,-4.5,-44.25,1.75,2.4375,-18.4375,-0.20999999344348907,-0.6600000262260437,9.779999732971191,0.54156494140625,-0.0086669921875,0.0341796875,-0.83990478515625,100570.4453125,27.422460556030273,99304.0
-0.25999999046325684,-0.7400000095367432,9.84000015258789,-16.875,-4.875,-44.375,3.6875,0.4375,-12.0,-0.2199999988079071,-0.6399999856948853,9.779999732971191,0.5384521484375,-0.00787353515625,0.03302001953125,-0.84197998046875,100570.0234375,27.420442581176758,99344.0
-0.3199999928474426,-0.3400000035762787,9.770000457763672,-15.75,-4.875,-44.375,6.75,-0.125,-4.0625,-0.20999999344348907,-0.6000000238418579,9.779999732971191,0.537353515625,-0.00689697265625,0.0311279296875,-0.8427734375,100569.71875,27.4189453125,99384.0
-0.20000000298023224,-0.27000001072883606,9.770000457763672,-16.1875,-4.875,-43.1875,4.25,-1.9375,-2.625,-0.20000000298023224,-0.5699999928474426,9.779999732971191,0.53668212890625,-0.00665283203125,0.02947998046875,-0.84326171875,100569.9453125,27.418386459350586,99424.0
-0.07000000029802322,-0.3199999928474426,9.819999694824219,-16.5,-5.5625,-43.1875,2.25,-2.25,-2.625,-0.1899999976158142,-0.5400000214576721,9.779999732971191,0.5360107421875,-0.0067138671875,0.0279541015625,-0.84375,100569.5703125,27.417972564697266,99464.0
-0.10000000149011612,-0.23999999463558197,9.770000457763672,-16.5,-5.5625,-43.1875,1.5625,-2.125,-2.1875,-0.17000000178813934,-0.5199999809265137,9.789999961853027,0.535400390625,-0.00701904296875,0.0267333984375,-0.8441162109375,100570.109375,27.419973373413086,99504.0
-0.019999999552965164,-0.4399999976158142,9.770000457763672,-16.1875,-5.5625,-43.0625,0.0,-2.0,0.625,-0.15000000596046448,-0.5099999904632568,9.789999961853027,0.5361328125,-0.0076904296875,0.02618408203125,-0.84368896484375,100570.3828125,27.41916275024414,99544.0
0.14000000059604645,-0.49000000953674316,9.8100004196167,-16.1875,-4.875,-43.1875,1.375,-2.125,2.25,-0.12999999523162842,-0.5,9.789999961853027,0.53692626953125,-0.0081787109375,0.0250244140625,-0.84320068359375,100569.734375,27.417972564697266,99584.0
0.1899999976158142,-0.41999998688697815,9.770000457763672,-16.5,-5.25,-44.25,3.1875,0.25,6.75,-0.11999999731779099,-0.47999998927116394,9.789999961853027,0.53936767578125,-0.0076904296875,0.02374267578125,-0.84173583984375,100570.3046875,27.419397354125977,99624.0
-0.10999999940395355,-0.3700000047683716,9.779999732971191,-16.875,-5.5625,-43.5625,4.5625,2.9375,17.1875,-0.12999999523162842,-0.44999998807907104,9.789999961853027,0.5430908203125,-0.0064697265625,0.02301025390625,-0.83935546875,100570.6328125,27.4193058013916,99664.0
-0.3700000047683716,-0.5799999833106995,10.010000228881836,-16.875,-5.5625,-43.5625,7.6875,2.3125,31.5625,-0.15000000596046448,-0.4099999964237213,9.789999961853027,0.5516357421875,-0.00421142578125,0.021484375,-0.83380126953125,100570.5703125,27.418676376342773,99704.0
-0.27000001072883606,-0.9399999976158142,10.039999961853027,-16.875,-6.0,-42.6875,16.125,-0.9375,63.9375,-0.17000000178813934,-0.3199999928474426,9.789999961853027,0.5682373046875,-0.0010986328125,0.0172119140625,-0.82269287109375,100570.546875,27.418766021728516,99744.0
-0.09000000357627869,-0.14000000059604645,9.75,-16.5,-5.5625,-44.25,28.0625,1.375,100.875,-0.18000000715255737,-0.15000000596046448,9.800000190734863,0.5947265625,0.00469970703125,0.01007080078125,-0.80389404296875,100570.3515625,27.418838500976562,99784.0
-0.699999988079071,-0.029999999329447746,9.779999732971191,-17.25,-4.875,-43.1875,27.0625,-0.9375,119.625,-0.1899999976158142,0.03999999910593033,9.800000190734863,0.62640380859375,0.0106201171875,0.00244140625,-0.7794189453125,100570.796875,27.421199798583984,99824.0
-0.019999999552965164,0.7400000095367432,9.630000114440918,-17.5625,-4.875,-43.5625,26.8125,-8.375,122.8125,-0.14000000059604645,0.23999999463558197,9.800000190734863,0.65789794921875,0.014404296875,-0.0067138671875,-0.7529296875,100571.109375,27.421812057495117,99864.0
-0.20000000298023224,0.7099999785423279,9.739999771118164,-17.5625,-4.875,-43.5625,12.3125,-7.5,99.75,-0.07000000029802322,0.36000001430511475,9.789999961853027,0.68402099609375,0.015380859375,-0.0125732421875,-0.72918701171875,100571.046875,27.42168617248535,99904.0
0.30000001192092896,0.9100000262260437,9.699999809265137,-18.6875,-3.5,-43.5625,8.75,-11.0,78.4375,0.009999999776482582,0.4300000071525574,9.789999961853027,0.703369140625,0.0145263671875,-0.0174560546875,-0.71044921875,100570.5546875,27.419883728027344,99944.0
0.5699999928474426,0.6700000166893005,9.680000305175781,-18.6875,-1.5625,-42.375,-0.0625,-7.375,59.8125,0.09000000357627869,0.4399999976158142,9.789999961853027,0.71881103515625,0.01251220703125,-0.0196533203125,-0.69476318359375,100570.390625,27.419666290283203,99984.0
0.23000000417232513,0.1899999976158142,9.8100004196167,-19.5,-1.5625,-43.1875,0.9375,-2.5,50.4375,0.12999999523162842,0.4399999976158142,9.789999961853027,0.730712890625,0.01165771484375,-0.0205078125,-0.68231201171875,100570.7734375,27.419504165649414,100024.0
0.23999999463558197,0.6800000071525574,9.699999809265137,-19.5,-1.5625,-43.1875,-3.6875,-2.125,40.25,0.15000000596046448,0.41999998688697815,9.789999961853027,0.74029541015625,0.0101318359375,-0.02069091796875,-0.67193603515625,100570.6953125,27.419973373413086,100064.0
0.12999999523162842,0.2199999988079071,9.770000457763672,-19.5,-0.875,-42.375,-3.3125,-3.1875,31.125,0.18000000715255737,0.38999998569488525,9.789999961853027,0.74761962890625,0.00836181640625,-0.020751953125,-0.66375732421875,100570.9921875,27.4208927154541,100104.0
0.25999999046325684,0.30000001192092896,9.760000228881836,-20.1875,0.1875,-42.6875,-0.25,-3.375,30.375,0.20999999344348907,0.3799999952316284,9.789999961853027,0.75433349609375,0.00726318359375,-0.021484375,-0.6561279296875,100570.7578125,27.41984748840332,100144.0
0.1899999976158142,0.5299999713897705,9.760000228881836,-19.5,1.25,-42.375,-4.4375,-3.0625,20.5,0.23999999463558197,0.36000001430511475,9.789999961853027,0.75958251953125,0.0054931640625,-0.021484375,-0.6500244140625,100570.484375,27.418495178222656,100184.0
0.3400000035762787,0.20000000298023224,9.779999732971191,-19.5,1.6875,-42.375,-3.0625,-3.25,9.75,0.27000001072883606,0.33000001311302185,9.789999961853027,0.76226806640625,0.00372314453125,-0.0216064453125,-0.64691162109375,100570.8828125,27.4174861907959,100224.0
0.49000000953674316,0.5699999928474426,9.760000228881836,-19.5,1.6875,-42.375,-5.125,-1.3125,5.25,0.28999999165534973,0.3100000023841858,9.789999961853027,0.763671875,0.002197265625,-0.02142333984375,-0.645263671875,100570.4296875,27.416709899902344,100264.0
0.41999998688697815,0.2800000011920929,9.699999809265137,-20.5,2.0,-41.875,-7.0,-0.1875,0.875,0.28999999165534973,0.27000001072883606,9.789999961853027,0.7642822265625,0.00030517578125,-0.02020263671875,-0.64459228515625,100570.484375,27.416728973388672,100304.0
0.2800000011920929,0.03999999910593033,9.770000457763672,-19.75,2.375,-42.6875,-4.9375,0.3125,2.875,0.28999999165534973,0.2199999988079071,9.789999961853027,0.76483154296875,-0.00115966796875,-0.0189208984375,-0.64398193359375,100570.6640625,27.416728973388672,100344.0
0.3799999952316284,0.019999999552965164,9.850000381469727,-20.1875,2.375,-42.6875,-1.875,0.75,10.75,0.28999999165534973,0.20000000298023224,9.789999961853027,0.76702880859375,-0.001953125,-0.01824951171875,-0.641357421875,100570.90625,27.416728973388672,100384.0
0.28999999165534973,0.05999999865889549,9.8100004196167,-20.5,2.375,-42.375,0.1875,1.4375,21.0625,0.28999999165534973,0.1899999976158142,9.800000190734863,0.77197265625,-0.00177001953125,-0.0179443359375,-0.63543701171875,100570.9453125,27.416728973388672,100424.0
0.07000000029802322,0.1599999964237213,9.789999961853027,-20.5,2.375,-42.375,2.4375,1.0,36.1875,0.28999999165534973,0.20000000298023224,9.800000190734863,0.78021240234375,-0.001220703125,-0.0181884765625,-0.625244140625,100570.9375,27.41730499267578,100464.0
0.009999999776482582,0.03999999910593033,9.8100004196167,-20.5,3.0625,-41.875,5.1875,-3.0,54.3125,0.30000001192092896,0.20999999344348907,9.789999961853027,0.79119873046875,-0.000732421875,-0.01934814453125,-0.6112060546875,100570.7890625,27.41716194152832,100504.0
0.11999999731779099,0.10999999940395355,9.800000190734863,-19.5,3.0625,-42.6875,8.875,-6.0,66.0,0.33000001311302185,0.23999999463558197,9.789999961853027,0.8043212890625,-0.0001220703125,-0.022216796875,-0.59381103515625,100570.25,27.41705322265625,100544.0
0.14000000059604645,0.05999999865889549,9.779999732971191,-20.5,3.875,-42.6875,10.0,-8.0625,73.3125,0.38999998569488525,0.28999999165534973,9.789999961853027,0.8189697265625,0.00048828125,-0.0262451171875,-0.5732421875,100569.9609375,27.41582679748535,100584.0
0.4099999964237213,0.3400000035762787,9.710000038146973,-20.5,5.25,-42.0,12.5,-8.6875,86.0,0.44999998807907104,0.33000001311302185,9.789999961853027,0.83538818359375,0.00140380859375,-0.031005859375,-0.548828125,100569.9375,27.41604232788086,100624.0
0.49000000953674316,0.5299999713897705,9.760000228881836,-20.5,5.25,-42.0,9.625,-9.5625,87.8125,0.5299999713897705,0.3700000047683716,9.779999732971191,0.85162353515625,0.00140380859375,-0.0355224609375,-0.52294921875,100569.640625,27.417377471923828,100664.0
0.5799999833106995,0.3400000035762787,9.760000228881836,-19.75,6.75,-41.5625,8.3125,-10.1875,85.6875,0.6399999856948853,0.4000000059604645,9.770000457763672,0.86639404296875,0.00091552734375,-0.03997802734375,-0.49774169921875,100569.484375,27.41836929321289,100704.0
0.3700000047683716,0.23999999463558197,9.649999618530273,-20.1875,7.5,-42.375,9.0625,-12.75,83.6875,0.75,0.4099999964237213,9.760000228881836,0.8797607421875,-0.0001220703125,-0.04547119140625,-0.47320556640625,100569.6328125,27.417953491210938,100744.0
-0.18000000715255737,0.10000000149011612,9.710000038146973,-18.6875,8.0625,-43.1875,2.875,-28.9375,74.375,0.9399999976158142,0.4000000059604645,9.75,0.89068603515625,-0.00494384765625,-0.05511474609375,-0.451171875,100570.125,27.41880226135254,100784.0
2.0399999618530273,-0.23000000417232513,9.59000015258789,-20.5,9.0,-41.1875,9.3125,-34.375,61.375,1.1299999952316284,0.4000000059604645,9.729999542236328,0.899169921875,-0.00787353515625,-0.066162109375,-0.43255615234375,100569.640625,27.417720794677734,100824.0
2.0999999046325684,0.5600000023841858,9.5600004196167,-20.5,9.0,-41.1875,13.3125,-16.75,62.0,1.2999999523162842,0.4399999976158142,9.699999809265137,0.907958984375,-0.00762939453125,-0.0726318359375,-0.41259765625,100569.328125,27.415159225463867,100864.0
1.75,0.7200000286102295,9.619999885559082,-19.75,10.75,-42.0,10.5625,-8.8125,56.25,1.409999966621399,0.46000000834465027,9.6899995803833,0.91668701171875,-0.007080078125,-0.07733154296875,-0.39202880859375,100569.875,27.415555953979492,100904.0
1.9700000286102295,0.9100000262260437,9.600000381469727,-20.5,10.75,-40.75,6.8125,-6.0,42.5,1.4700000286102295,0.4699999988079071,9.680000305175781,0.9215087890625,-0.0067138671875,-0.0804443359375,-0.3798828125,100569.8359375,27.412384033203125,100944.0
1.8700000047683716,0.7599999904632568,9.630000114440918,-20.875,11.5625,-42.0,1.625,-1.0,33.0625,1.5099999904632568,0.4699999988079071,9.670000076293945,0.92437744140625,-0.00701904296875,-0.08135986328125,-0.37255859375,100570.1484375,27.412906646728516,100984.0
1.809999942779541,0.46000000834465027,9.609999656677246,-19.75,12.875,-40.6875,0.4375,1.4375,24.9375,1.5199999809265137,0.44999998807907104,9.670000076293945,0.9278564453125,-0.0072021484375,-0.080810546875,-0.364013671875,100570.5078125,27.415016174316406,101024.0
1.7799999713897705,0.38999998569488525,9.640000343322754,-19.75,12.875,-40.6875,2.0,4.125,18.6875,1.5099999904632568,0.4399999976158142,9.670000076293945,0.93023681640625,-0.00665283203125,-0.0799560546875,-0.3580322265625,100571.484375,27.420063018798828,101064.0
1.6799999475479126,0.41999998688697815,9.539999961853027,-19.75,12.875,-40.75,2.875,7.1875,13.8125,1.4900000095367432,0.4399999976158142,9.680000305175781,0.93255615234375,-0.00482177734375,-0.07763671875,-0.35247802734375,100571.3671875,27.421541213989258,101104.0
1.3799999952316284,0.3499999940395355,9.65999984741211,-18.6875,12.5,-40.6875,2.875,9.9375,9.625,1.4299999475479126,0.44999998807907104,9.6899995803833,0.934326171875,-0.002685546875,-0.074951171875,-0.34844970703125,100570.71875,27.419757843017578,101144.0
1.340000033378601,0.5,9.680000305175781,-18.0,13.6875,-40.375,4.6875,8.0625,0.125,1.3700000047683716,0.4699999988079071,9.6899995803833,0.93408203125,-0.0003662109375,-0.0726318359375,-0.349609375,100570.71875,27.420730590820312,101184.0
1.0499999523162842,0.3499999940395355,9.670000076293945,-18.0625,11.875,-42.0,3.0625,9.375,-10.1875,1.309999942779541,0.49000000953674316,9.699999809265137,0.93316650390625,0.0015869140625,-0.07080078125,-0.35235595703125,100571.328125,27.422624588012695,101224.0
1.090000033378601,0.6600000262260437,9.670000076293945,-18.0625,11.875,-42.0,4.5625,7.25,-15.5,1.25,0.5299999713897705,9.710000038146973,0.9315185546875,0.004150390625,-0.0689697265625,-0.35711669921875,100571.125,27.42518424987793,101264.0
0.9800000190734863,0.8399999737739563,9.699999809265137,-19.0625,13.375,-41.1875,2.1875,7.25,-14.375,1.2000000476837158,0.5699999928474426,9.710000038146973,0.92999267578125,0.00616455078125,-0.0667724609375,-0.3614501953125,100571.2890625,27.427690505981445,101304.0
0.9100000262260437,0.7200000286102295,9.6899995803833,-18.375,12.1875,-40.6875,-0.125,5.5,-10.9375,1.1399999856948853,0.5899999737739563,9.720000267028809,0.9288330078125,0.00738525390625,-0.06475830078125,-0.36474609375,100571.5703125,27.428987503051758,101344.0
0.8899999856948853,0.7099999785423279,9.699999809265137,-18.0,11.1875,-41.875,-1.6875,3.625,-7.1875,1.100000023841858,0.5899999737739563,9.720000267028809,0.92803955078125,0.00762939453125,-0.0631103515625,-0.366943359375,100571.46875,27.428808212280273,101384.0
0.949999988079071,0.6200000047683716,9.75,-18.6875,11.5625,-41.875,-1.625,1.125,-3.8125,1.0800000429153442,0.5799999833106995,9.720000267028809,0.9276123046875,0.00738525390625,-0.06231689453125,-0.3682861328125,100571.375,27.429258346557617,101424.0
0.9900000095367432,0.6000000238418579,9.729999542236328,-18.6875,11.5625,-41.875,-0.875,-0.25,-0.625,1.0700000524520874,0.5799999833106995,9.720000267028809,0.927490234375,0.007080078125,-0.06219482421875,-0.3685302734375,100571.3046875,27.430736541748047,101464.0
1.0099999904632568,0.5699999928474426,9.6899995803833,-18.0,11.1875,-41.5625,-0.5,-0.9375,0.875,1.0800000429153442,0.5699999928474426,9.720000267028809,0.9276123046875,0.00689697265625,-0.0623779296875,-0.36822509765625,100571.078125,27.431278228759766,101504.0
1.100000023841858,0.5899999737739563,9.65999984741211,-17.5625,11.5625,-42.0,-0.5,-0.9375,0.4375,1.0800000429153442,0.5699999928474426,9.720000267028809,0.9276123046875,0.006591796875,-0.0626220703125,-0.36822509765625,100571.3671875,27.431673049926758,101544.0
1.090000033378601,0.5099999904632568,9.670000076293945,-18.6875,12.1875,-42.375,-0.8125,-0.375,-0.375,1.090000033378601,0.5600000023841858,9.720000267028809,0.92755126953125,0.00640869140625,-0.0626220703125,-0.36834716796875,100571.3046875,27.43140411376953,101584.0
1.1100000143051147,0.6899999976158142,9.670000076293945,-19.75,11.875,-40.375,-1.375,0.375,-0.3125,1.090000033378601,0.5600000023841858,9.720000267028809,0.927001953125,0.00579833984375,-0.06243896484375,-0.36981201171875,100571.359375,27.43120574951172,101624.0
1.100000023841858,0.47999998927116394,9.729999542236328,-19.75,11.875,-40.375,-2.9375,0.6875,0.125,1.090000033378601,0.5400000214576721,9.729999542236328,0.927001953125,0.0050048828125,-0.06195068359375,-0.36981201171875,100571.515625,27.43219757080078,101664.0
1.090000033378601,0.8600000143051147,9.640000343322754,-18.0,11.875,-42.0,-1.3125,0.6875,-0.375,1.0800000429153442,0.5299999713897705,9.729999542236328,0.92669677734375,0.00421142578125,-0.0614013671875,-0.37078857421875,100571.3359375,27.432954788208008,101704.0
1.090000033378601,0.5899999737739563,9.680000305175781,-18.6875,10.75,-42.6875,-2.4375,0.6875,0.5,1.0800000429153442,0.5099999904632568,9.729999542236328,0.92669677734375,0.0032958984375,-0.06072998046875,-0.370849609375,100571.34375,27.43408966064453,101744.0
0.9900000095367432,0.3700000047683716,9.699999809265137,-18.375,11.875,-41.1875,-3.1875,1.125,0.4375,1.0700000524520874,0.47999998927116394,9.729999542236328,0.92669677734375,0.00238037109375,-0.0599365234375,-0.3709716796875,100571.3515625,27.43378257751465,101784.0
1.0800000429153442,0.3499999940395355,9.6899995803833,-18.0,12.5625,-42.0,-1.9375,0.8125,0.0,1.0700000524520874,0.4699999988079071,9.729999542236328,0.92681884765625,0.0018310546875,-0.0594482421875,-0.37066650390625,100571.1796875,27.43356704711914,101824.0
1.0399999618530273,0.3700000047683716,9.6899995803833,-18.0,12.5625,-42.0,-0.375,0.25,0.375,1.059999942779541,0.46000000834465027,9.729999542236328,0.92681884765625,0.001708984375,-0.05926513671875,-0.3707275390625,100571.015625,27.432231903076172,101864.0
0.9700000286102295,0.4300000071525574,9.65999984741211,-18.6875,12.5625,-40.75,0.125,0.875,1.625,1.059999942779541,0.46000000834465027,9.729999542236328,0.9271240234375,0.00177001953125,-0.05908203125,-0.3701171875,100571.21875,27.432971954345703,101904.0
1.0700000524520874,-0.41999998688697815,9.90999984741211,-18.0,12.1875,-42.375,-3.75,0.3125,2.0625,1.059999942779541,0.44999998807907104,9.729999542236328,0.9273681640625,0.001708984375,-0.05908203125,-0.3695068359375,100570.6171875,27.432376861572266,101944.0
1.0399999618530273,0.75,9.770000457763672,-18.0,11.875,-42.0,2.6875,-1.0,1.0625,1.059999942779541,0.4699999988079071,9.729999542236328,0.92742919921875,0.0020751953125,-0.0595703125,-0.369140625,100570.140625,27.43134880065918,101984.0
1.090000033378601,0.4300000071525574,9.640000343322754,-18.0,12.1875,-42.6875,0.3125,-0.0625,0.375,1.059999942779541,0.46000000834465027,9.729999542236328,0.927490234375,0.00201416015625,-0.0595703125,-0.36907958984375,100570.140625,27.430015563964844,102024.0
0.9900000095367432,0.46000000834465027,9.680000305175781,-18.0,12.1875,-42.6875,0.6875,0.625,-1.0,1.059999942779541,0.46000000834465027,9.729999542236328,0.92706298828125,0.00213623046875,-0.05950927734375,-0.37005615234375,100570.5859375,27.431312561035156,102064.0
0.9900000095367432,0.550000011920929,9.710000038146973,-18.6875,11.5625,-41.875,-1.875,0.125,-0.4375,1.059999942779541,0.46000000834465027,9.729999542236328,0.9273681640625,0.0015869140625,-0.0592041015625,-0.36944580078125,100571.15625,27.43170928955078,102104.0
1.0099999904632568,0.3199999928474426,9.760000228881836,-16.875,12.1875,-41.5625,-2.625,0.125,0.6875,1.059999942779541,0.4399999976158142,9.729999542236328,0.927490234375,0.00079345703125,-0.05889892578125,-0.3692626953125,100571.28125,27.432575225830078,102144.0
0.9700000286102295,0.3199999928474426,9.720000267028809,-17.5625,12.1875,-41.1875,-1.8125,-0.25,1.8125,1.059999942779541,0.4300000071525574,9.729999542236328,0.927734375,0.000244140625,-0.0587158203125,-0.36865234375,100570.8125,27.431493759155273,102184.0
1.1200000047683716,0.38999998569488525,9.75,-17.5625,12.1875,-41.1875,-0.1875,-1.25,1.6875,1.0700000524520874,0.41999998688697815,9.729999542236328,0.9276123046875,6.103515625e-05,-0.0589599609375,-0.368896484375,100571.0546875,27.433008193969727,102224.0
1.090000033378601,0.5799999833106995,9.640000343322754,-19.0625,12.1875,-40.75,-0.5,0.0625,1.875,1.0700000524520874,0.41999998688697815,9.729999542236328,0.92779541015625,-0.0003662109375,-0.058837890625,-0.36834716796875,100571.5703125,27.432971954345703,102264.0
1.0800000429153442,0.36000001430511475,9.649999618530273,-18.0,12.5625,-42.0,-2.6875,0.5625,0.1875,1.0700000524520874,0.4000000059604645,9.729999542236328,0.92779541015625,-0.00115966796875,-0.05841064453125,-0.36846923828125,100571.5234375,27.432954788208008,102304.0
1.0399999618530273,0.2199999988079071,9.729999542236328,-18.6875,12.5625,-41.1875,-0.8125,1.0625,-1.0625,1.059999942779541,0.38999998569488525,9.739999771118164,0.92767333984375,-0.00128173828125,-0.05792236328125,-0.36883544921875,100571.921875,27.43293571472168,102344.0
1.0299999713897705,0.27000001072883606,9.720000267028809,-17.5625,12.5625,-40.6875,0.8125,1.0625,-1.1875,1.0499999523162842,0.38999998569488525,9.739999771118164,0.9276123046875,-0.00103759765625,-0.0576171875,-0.36907958984375,100571.921875,27.434072494506836,102384.0
0.9900000095367432,0.3499999940395355,9.720000267028809,-17.5625,12.5625,-40.6875,0.75,0.6875,-0.875,1.0499999523162842,0.4000000059604645,9.739999771118164,0.92767333984375,-0.000732421875,-0.05743408203125,-0.36895751953125,100571.2578125,27.432628631591797,102424.0
0.9900000095367432,0.4300000071525574,9.6899995803833,-18.0,13.0,-42.375,-0.625,0.5625,-0.125,1.0399999618530273,0.4000000059604645,9.739999771118164,0.92767333984375,-0.00091552734375,-0.05731201171875,-0.3690185546875,100571.3984375,27.433855056762695,102464.0
0.9300000071525574,0.3400000035762787,9.649999618530273,-17.5625,11.875,-42.6875,-1.125,-0.25,-0.5,1.0399999618530273,0.38999998569488525,9.739999771118164,0.92767333984375,-0.001220703125,-0.05712890625,-0.3690185546875,100571.453125,27.434179306030273,102504.0
1.0099999904632568,0.30000001192092896,9.720000267028809,-17.5625,12.1875,-41.5625,-0.75,-0.5,-0.5,1.0399999618530273,0.3799999952316284,9.739999771118164,0.92767333984375,-0.00140380859375,-0.05706787109375,-0.3690185546875,100572.046875,27.435009002685547,102544.0
1.0099999904632568,0.33000001311302185,9.760000228881836,-18.0,13.0,-41.875,0.0625,-0.1875,-0.0625,1.0399999618530273,0.3799999952316284,9.739999771118164,0.927734375,-0.00140380859375,-0.05706787109375,-0.368896484375,100572.234375,27.435062408447266,102584.0
0.9700000286102295,0.38999998569488525,9.710000038146973,-18.0,13.0,-41.875,-0.4375,-0.6875,-0.25,1.0499999523162842,0.3799999952316284,9.739999771118164,0.9276123046875,-0.00164794921875,-0.057373046875,-0.36907958984375,100571.5625,27.433944702148438,102624.0
1.1200000047683716,0.38999998569488525,9.600000381469727,-18.375,13.0,-42.0,-1.3125,-1.0625,-0.875,1.059999942779541,0.3799999952316284,9.739999771118164,0.927490234375,-0.00213623046875,-0.05743408203125,-0.369384765625,100571.296875,27.434829711914062,102664.0
1.0099999904632568,0.28999999165534973,9.739999771118164,-17.5625,11.875,-43.5625,-0.6875,-0.125,-0.5625,1.0499999523162842,0.3700000047683716,9.739999771118164,0.92742919921875,-0.0023193359375,-0.057373046875,-0.36956787109375,100571.7421875,27.435495376586914,102704.0
1.0800000429153442,0.14000000059604645,9.8100004196167,-18.0,12.1875,-41.1875,0.8125,-0.4375,-0.8125,1.0499999523162842,0.3700000047683716,9.739999771118164,0.92742919921875,-0.00177001953125,-0.05755615234375,-0.36962890625,100571.40625,27.43427085876465,102744.0
1.059999942779541,0.4300000071525574,9.680000305175781,-18.6875,12.5625,-42.6875,1.8125,0.5,0.125,1.0499999523162842,0.3799999952316284,9.739999771118164,0.9273681640625,-0.00140380859375,-0.0576171875,-0.36968994140625,100571.46875,27.43450355529785,102784.0
0.9900000095367432,0.49000000953674316,9.640000343322754,-18.6875,12.5625,-42.6875,-0.8125,0.5625,0.4375,1.0499999523162842,0.38999998569488525,9.739999771118164,0.92730712890625,-0.001708984375,-0.05743408203125,-0.36981201171875,100571.4765625,27.43641471862793,102824.0
1.0099999904632568,0.33000001311302185,9.729999542236328,-18.375,12.1875,-43.1875,-1.125,-0.5,-0.1875,1.0499999523162842,0.3799999952316284,9.739999771118164,0.92779541015625,-0.00201416015625,-0.057373046875,-0.36865234375,100571.7890625,27.438417434692383,102864.0
1.0499999523162842,0.30000001192092896,9.699999809265137,-16.875,13.0,-41.1875,-1.0625,-0.1875,-0.4375,1.0499999523162842,0.3700000047683716,9.739999771118164,0.92822265625,-0.00213623046875,-0.05731201171875,-0.36761474609375,100571.96875,27.438182830810547,102904.0
1.0399999618530273,0.3700000047683716,9.710000038146973,-17.25,13.0,-43.875,-0.375,0.1875,0.4375,1.0499999523162842,0.3700000047683716,9.739999771118164,0.92822265625,-0.00225830078125,-0.0572509765625,-0.36761474609375,100571.859375,27.438020706176758,102944.0
0.949999988079071,0.33000001311302185,9.75,-17.25,12.1875,-42.375,-1.125,-0.375,0.4375,1.0499999523162842,0.36000001430511475,9.739999771118164,0.92822265625,-0.00274658203125,-0.0572509765625,-0.36761474609375,100571.953125,27.4361629486084,102984.0
1.0499999523162842,0.30000001192092896,9.720000267028809,-17.25,12.1875,-42.375,-0.875,-0.4375,-0.5,1.059999942779541,0.36000001430511475,9.739999771118164,0.92828369140625,-0.00286865234375,-0.05718994140625,-0.367431640625,100571.890625,27.435333251953125,103024.0
1.0399999618530273,0.3199999928474426,9.680000305175781,-17.25,12.5625,-42.375,-0.875,-0.125,-0.6875,1.059999942779541,0.3499999940395355,9.739999771118164,0.92840576171875,-0.00311279296875,-0.05706787109375,-0.3671875,100572.09375,27.438758850097656,103064.0
1.0499999523162842,0.3100000023841858,9.729999542236328,-17.5625,13.0,-42.6875,-1.125,0.0625,-0.5,1.059999942779541,0.3499999940395355,9.739999771118164,0.92840576171875,-0.00347900390625,-0.05694580078125,-0.3671875,100571.9609375,27.44133758544922,103104.0
1.0199999809265137,0.30000001192092896,9.720000267028809,-16.5,13.375,-41.1875,-0.9375,0.3125,0.0,1.059999942779541,0.3400000035762787,9.739999771118164,0.92913818359375,-0.003662109375,-0.05682373046875,-0.3653564453125,100571.625,27.44153594970703,103144.0
1.0099999904632568,0.3199999928474426,9.670000076293945,-18.375,12.1875,-41.875,-0.625,-0.375,-0.1875,1.059999942779541,0.33000001311302185,9.739999771118164,0.92889404296875,-0.00390625,-0.05682373046875,-0.36590576171875,100571.8984375,27.442832946777344,103184.0
1.059999942779541,0.2800000011920929,9.680000305175781,-18.375,12.1875,-41.875,-0.625,-0.875,-0.3125,1.059999942779541,0.33000001311302185,9.739999771118164,0.92877197265625,-0.00421142578125,-0.05706787109375,-0.3662109375,100571.8984375,27.44322967529297,103224.0
1.090000033378601,0.27000001072883606,9.720000267028809,-18.375,12.5625,-41.5625,-0.75,-1.125,-0.4375,1.0700000524520874,0.33000001311302185,9.739999771118164,0.92877197265625,-0.004638671875,-0.057373046875,-0.3662109375,100572.015625,27.4423828125,103264.0
1.1200000047683716,0.2800000011920929,9.699999809265137,-18.6875,13.375,-43.875,-0.4375,-0.75,-0.1875,1.0700000524520874,0.3199999928474426,9.739999771118164,0.92877197265625,-0.004638671875,-0.0574951171875,-0.3662109375,100572.2109375,27.44000244140625,103304.0
1.100000023841858,0.3100000023841858,9.739999771118164,-18.0,12.5625,-42.6875,-0.125,-0.0625,0.0625,1.0800000429153442,0.3199999928474426,9.739999771118164,0.92877197265625,-0.004638671875,-0.0574951171875,-0.3662109375,100572.2578125,27.43821907043457,103344.0
