Accel_X,Accel_Y,Accel_Z,Magneto_X,Magneto_Y,Magneto_Z,Gyro_X,Gyro_Y,Gyro_Z,Gravity_X,Gravity_Y,Gravity_Z,Quaternion_W,Quaternion_X,Quaternion_Y,Quaternion_Z,Pressure,Temperature,Time
0.07000000029802322,0.5099999904632568,9.8100004196167,-15.5625,10.25,-48.375,0.875,-0.125,-0.1875,0.029999999329447746,0.7699999809265137,9.770000457763672,0.91717529296875,0.0357666015625,-0.01739501953125,-0.39642333984375,83064.8515625,23.358642578125,106128.0
0.09000000357627869,0.9100000262260437,9.770000457763672,-16.0,11.0625,-48.0625,4.625,-0.4375,-0.625,0.029999999329447746,0.7900000214576721,9.770000457763672,0.9171142578125,0.03692626953125,-0.01800537109375,-0.396484375,100573.9765625,27.96363639831543,106168.0
0.10999999940395355,1.0,9.75,-17.0625,10.6875,-46.875,1.25,-0.125,0.0,0.029999999329447746,0.8100000023841858,9.770000457763672,0.9171142578125,0.0372314453125,-0.01812744140625,-0.396484375,100572.890625,27.98382568359375,106208.0
0.03999999910593033,0.9100000262260437,9.789999961853027,-15.5625,11.0625,-47.5625,-0.625,0.0625,0.6875,0.029999999329447746,0.8100000023841858,9.770000457763672,0.91717529296875,0.037109375,-0.01812744140625,-0.3963623046875,100572.484375,28.0168514251709,106248.0
0.10999999940395355,0.6899999976158142,9.770000457763672,-16.0,11.0625,-47.5625,-0.5,-0.125,0.25,0.029999999329447746,0.800000011920929,9.770000457763672,0.91717529296875,0.0369873046875,-0.01806640625,-0.3963623046875,100570.7890625,28.053157806396484,106288.0
0.03999999910593033,0.7400000095367432,9.789999961853027,-16.0,11.0625,-47.5625,-0.25,0.4375,0.125,0.029999999329447746,0.800000011920929,9.770000457763672,0.91717529296875,0.0369873046875,-0.01806640625,-0.3963623046875,100569.53125,28.089031219482422,106328.0
0.029999999329447746,0.7400000095367432,9.800000190734863,-16.0,11.375,-48.0,-0.25,0.0,0.3125,0.029999999329447746,0.800000011920929,9.770000457763672,0.91717529296875,0.03692626953125,-0.01806640625,-0.3963623046875,100568.5234375,28.123443603515625,106368.0
0.07999999821186066,0.6000000238418579,9.75,-16.25,10.6875,-48.75,1.0,0.4375,-0.4375,0.029999999329447746,0.800000011920929,9.770000457763672,0.91717529296875,0.03704833984375,-0.0181884765625,-0.3963623046875,100568.15625,28.155603408813477,106408.0
-0.03999999910593033,0.8399999737739563,9.75,-16.0,11.375,-47.1875,1.625,-0.25,-0.75,0.029999999329447746,0.8100000023841858,9.770000457763672,0.9171142578125,0.03759765625,-0.0184326171875,-0.396484375,100567.125,28.182010650634766,106448.0
0.07999999821186066,0.8799999952316284,9.760000228881836,-16.0,11.0625,-48.0,1.25,-0.8125,-0.625,0.03999999910593033,0.8199999928474426,9.770000457763672,0.9169921875,0.03778076171875,-0.018798828125,-0.39666748046875,100565.953125,28.204147338867188,106488.0
0.09000000357627869,0.8199999928474426,9.8100004196167,-16.0,11.0625,-48.0,0.6875,0.0625,-0.125,0.03999999910593033,0.8199999928474426,9.770000457763672,0.9169921875,0.0379638671875,-0.0189208984375,-0.39666748046875,100565.6484375,28.225923538208008,106528.0
0.029999999329447746,0.9200000166893005,9.770000457763672,-16.25,10.25,-47.5625,0.5625,-0.3125,-0.375,0.03999999910593033,0.8299999833106995,9.770000457763672,0.9169921875,0.03814697265625,-0.01898193359375,-0.3966064453125,100564.9453125,28.24167823791504,106568.0
0.07999999821186066,0.8799999952316284,9.770000457763672,-16.25,11.0625,-48.0,-0.625,-0.375,-0.0625,0.03999999910593033,0.8299999833106995,9.770000457763672,0.9169921875,0.03802490234375,-0.0189208984375,-0.39666748046875,100564.0234375,28.254079818725586,106608.0
0.05999999865889549,0.7699999809265137,9.739999771118164,-16.25,10.6875,-47.1875,-1.5,-0.4375,-0.75,0.03999999910593033,0.8199999928474426,9.770000457763672,0.91693115234375,0.03759765625,-0.018798828125,-0.39678955078125,100563.7734375,28.266265869140625,106648.0
-0.009999999776482582,0.7900000214576721,9.760000228881836,-17.0625,9.875,-47.5625,-1.875,-1.1875,-1.5625,0.03999999910593033,0.8100000023841858,9.770000457763672,0.916748046875,0.03692626953125,-0.018798828125,-0.39727783203125,100563.5078125,28.276559829711914,106688.0
0.12999999523162842,0.550000011920929,9.770000457763672,-17.0625,9.875,-47.5625,-0.4375,-2.6875,-2.4375,0.05999999865889549,0.7900000214576721,9.770000457763672,0.91644287109375,0.03607177734375,-0.0194091796875,-0.3980712890625,100562.9375,28.28485107421875,106728.0
0.23999999463558197,0.7200000286102295,9.75,-15.5625,10.25,-48.0,1.875,-0.625,-0.6875,0.07000000029802322,0.800000011920929,9.770000457763672,0.91632080078125,0.036376953125,-0.01995849609375,-0.3983154296875,100562.8984375,28.293376922607422,106768.0
0.20999999344348907,0.8600000143051147,9.789999961853027,-16.25,10.6875,-47.1875,2.1875,0.0,0.25,0.07000000029802322,0.8199999928474426,9.770000457763672,0.91632080078125,0.0369873046875,-0.0203857421875,-0.39825439453125,100562.7421875,28.30093002319336,106808.0
0.11999999731779099,0.8799999952316284,9.770000457763672,-17.0625,11.375,-48.0,0.375,0.1875,0.4375,0.07000000029802322,0.8199999928474426,9.770000457763672,0.916259765625,0.03717041015625,-0.0205078125,-0.39825439453125,100562.3203125,28.304859161376953,106848.0
0.1599999964237213,0.8500000238418579,9.75,-17.0625,11.0625,-47.5625,-0.3125,0.4375,0.4375,0.07000000029802322,0.8199999928474426,9.770000457763672,0.91632080078125,0.03717041015625,-0.0205078125,-0.398193359375,100562.5625,28.310123443603516,106888.0
0.14000000059604645,0.8100000023841858,9.779999732971191,-17.0625,11.0625,-47.5625,-0.125,1.125,-0.125,0.07000000029802322,0.8199999928474426,9.770000457763672,0.91632080078125,0.03729248046875,-0.02020263671875,-0.398193359375,100562.8203125,28.3134765625,106928.0
0.03999999910593033,0.7599999904632568,9.770000457763672,-16.25,10.6875,-47.5625,-0.25,0.125,-0.875,0.07000000029802322,0.8199999928474426,9.770000457763672,0.91619873046875,0.03729248046875,-0.0201416015625,-0.3984375,100562.9609375,28.318307876586914,106968.0
0.10000000149011612,0.7799999713897705,9.779999732971191,-16.0,11.6875,-48.375,0.3125,-0.6875,-0.4375,0.07000000029802322,0.8199999928474426,9.770000457763672,0.91619873046875,0.0372314453125,-0.02020263671875,-0.39849853515625,100562.9140625,28.321929931640625,107008.0
0.15000000596046448,0.8399999737739563,9.789999961853027,-17.0625,11.0625,-48.0,1.5,0.0,0.375,0.07000000029802322,0.8299999833106995,9.770000457763672,0.916259765625,0.03765869140625,-0.02044677734375,-0.3983154296875,100562.5,28.32407569885254,107048.0
0.05000000074505806,0.8999999761581421,9.770000457763672,-17.0625,11.0625,-48.0,0.6875,0.3125,1.5,0.07000000029802322,0.8299999833106995,9.770000457763672,0.91644287109375,0.037841796875,-0.02056884765625,-0.39788818359375,100562.3125,28.326833724975586,107088.0
0.15000000596046448,0.8799999952316284,9.779999732971191,-17.5,10.25,-46.75,0.0625,-0.25,1.0625,0.07000000029802322,0.8399999737739563,9.770000457763672,0.91656494140625,0.03778076171875,-0.0206298828125,-0.39752197265625,100562.5625,28.331214904785156,107128.0
0.09000000357627869,0.8600000143051147,9.760000228881836,-16.25,9.875,-46.75,-0.25,0.6875,0.0625,0.07000000029802322,0.8399999737739563,9.770000457763672,0.9166259765625,0.03790283203125,-0.0205078125,-0.3974609375,100562.65625,28.33218765258789,107168.0
0.009999999776482582,0.8500000238418579,9.779999732971191,-16.6875,10.6875,-48.375,-1.0,0.5625,-0.5625,0.07000000029802322,0.8299999833106995,9.770000457763672,0.91656494140625,0.03765869140625,-0.020263671875,-0.39752197265625,100562.46875,28.33350372314453,107208.0
0.07999999821186066,0.7300000190734863,9.75,-16.25,11.0625,-48.375,-1.5,0.5625,-0.625,0.07000000029802322,0.8299999833106995,9.770000457763672,0.91650390625,0.03729248046875,-0.0198974609375,-0.39776611328125,100562.5625,28.336206436157227,107248.0
0.05999999865889549,0.6600000262260437,9.850000381469727,-16.25,11.0625,-48.375,-0.0625,1.0,-1.5,0.05999999865889549,0.8199999928474426,9.770000457763672,0.91632080078125,0.037353515625,-0.01953125,-0.398193359375,100562.671875,28.33824348449707,107288.0
0.09000000357627869,0.7799999713897705,9.789999961853027,-16.25,10.6875,-47.1875,1.25,0.3125,-1.4375,0.05000000074505806,0.8199999928474426,9.770000457763672,0.91607666015625,0.0377197265625,-0.01971435546875,-0.398681640625,100562.28125,28.33977699279785,107328.0
0.10000000149011612,0.800000011920929,9.699999809265137,-16.25,11.0625,-46.375,2.0625,0.5,-0.4375,0.05000000074505806,0.8399999737739563,9.770000457763672,0.916015625,0.038330078125,-0.01995849609375,-0.3988037109375,100562.1796875,28.339181900024414,107368.0
0.18000000715255737,1.059999942779541,9.670000076293945,-16.0,10.25,-48.0625,1.875,0.6875,0.8125,0.05000000074505806,0.8500000238418579,9.760000228881836,0.91607666015625,0.03900146484375,-0.02020263671875,-0.3985595703125,100562.703125,28.341632843017578,107408.0
0.14000000059604645,1.0800000429153442,9.75,-16.0,10.25,-47.5625,-0.5,1.4375,1.75,0.05000000074505806,0.8600000143051147,9.760000228881836,0.91632080078125,0.03912353515625,-0.01983642578125,-0.39801025390625,100562.546875,28.344030380249023,107448.0
0.03999999910593033,0.8999999761581421,9.8100004196167,-16.0,10.25,-47.5625,-3.8125,1.75,0.3125,0.03999999910593033,0.8399999737739563,9.760000228881836,0.91644287109375,0.0380859375,-0.01885986328125,-0.39794921875,100562.5078125,28.345273971557617,107488.0
0.05000000074505806,0.7300000190734863,9.789999961853027,-16.6875,11.375,-47.1875,-5.8125,1.4375,-1.375,0.029999999329447746,0.800000011920929,9.770000457763672,0.91632080078125,0.036376953125,-0.01751708984375,-0.3984375,100563.109375,28.347923278808594,107528.0
-0.05000000074505806,0.47999998927116394,9.819999694824219,-17.0625,11.375,-47.5625,-5.625,1.75,-1.9375,0.019999999552965164,0.7599999904632568,9.770000457763672,0.9161376953125,0.03497314453125,-0.01629638671875,-0.3990478515625,100563.2890625,28.348752975463867,107568.0
-0.07999999821186066,0.38999998569488525,9.710000038146973,-16.25,11.375,-46.875,-2.5625,0.8125,-1.9375,0.009999999776482582,0.7300000190734863,9.770000457763672,0.91595458984375,0.0340576171875,-0.0155029296875,-0.39959716796875,100563.6796875,28.34880828857422,107608.0
-0.03999999910593033,0.550000011920929,9.789999961853027,-15.5625,11.0625,-47.1875,0.5625,-0.125,-1.0,0.009999999776482582,0.7200000286102295,9.770000457763672,0.91583251953125,0.03387451171875,-0.015380859375,-0.39984130859375,100563.9921875,28.350574493408203,107648.0
0.1599999964237213,0.6800000071525574,9.779999732971191,-15.5625,11.0625,-47.1875,1.9375,-0.3125,-0.375,0.009999999776482582,0.7300000190734863,9.770000457763672,0.91583251953125,0.034423828125,-0.01568603515625,-0.39984130859375,100564.6796875,28.35306167602539,107688.0
0.11999999731779099,0.9399999976158142,9.729999542236328,-16.25,10.6875,-47.1875,2.5,1.5,0.1875,0.0,0.75,9.770000457763672,0.915771484375,0.035400390625,-0.01556396484375,-0.3997802734375,100565.2890625,28.353763580322266,107728.0
-0.019999999552965164,0.8700000047683716,9.819999694824219,-16.0,11.0625,-48.0625,0.0,1.6875,0.25,0.0,0.75,9.770000457763672,0.915771484375,0.03558349609375,-0.0150146484375,-0.3997802734375,100564.859375,28.351402282714844,107768.0
-0.019999999552965164,0.7699999809265137,9.8100004196167,-16.25,11.375,-48.375,-1.5625,1.4375,0.0625,-0.009999999776482582,0.75,9.770000457763672,0.91583251953125,0.03533935546875,-0.0145263671875,-0.3997802734375,100564.5625,28.35079002380371,107808.0
-0.09000000357627869,0.7200000286102295,9.789999961853027,-16.25,11.0625,-48.0,-1.375,1.25,-0.4375,-0.019999999552965164,0.7400000095367432,9.770000457763672,0.91583251953125,0.03497314453125,-0.013916015625,-0.3997802734375,100564.4453125,28.35149383544922,107848.0
-0.12999999523162842,0.6600000262260437,9.800000190734863,-16.25,11.0625,-48.0,-1.9375,0.6875,-0.4375,-0.019999999552965164,0.7300000190734863,9.770000457763672,0.9158935546875,0.03448486328125,-0.01348876953125,-0.3997802734375,100564.6484375,28.356054306030273,107888.0
0.019999999552965164,0.5699999928474426,9.770000457763672,-16.0,12.0625,-47.1875,-1.9375,0.0625,-0.3125,-0.019999999552965164,0.7099999785423279,9.779999732971191,0.9158935546875,0.033935546875,-0.01324462890625,-0.3997802734375,100564.125,28.357730865478516,107928.0
0.009999999776482582,0.6499999761581421,9.75,-16.25,11.6875,-47.1875,0.0,0.8125,0.3125,-0.019999999552965164,0.7099999785423279,9.779999732971191,0.9158935546875,0.03399658203125,-0.0130615234375,-0.3997802734375,100564.0078125,28.35670280456543,107968.0
0.029999999329447746,0.7200000286102295,9.779999732971191,-15.25,11.375,-47.1875,0.625,1.125,-0.1875,-0.029999999329447746,0.7099999785423279,9.779999732971191,0.9158935546875,0.03424072265625,-0.01275634765625,-0.39971923828125,100564.21875,28.358217239379883,108008.0
0.05999999865889549,0.6299999952316284,9.819999694824219,-16.6875,10.25,-48.375,-0.4375,1.0625,-0.1875,-0.03999999910593033,0.7099999785423279,9.779999732971191,0.9158935546875,0.03436279296875,-0.012451171875,-0.3997802734375,100563.7421875,28.358793258666992,108048.0
0.10999999940395355,0.6399999856948853,9.779999732971191,-16.6875,10.25,-48.375,0.875,2.9375,-0.3125,-0.05000000074505806,0.7099999785423279,9.779999732971191,0.9158935546875,0.03497314453125,-0.01171875,-0.3997802734375,100563.1953125,28.359209060668945,108088.0
-0.05000000074505806,0.7900000214576721,9.779999732971191,-16.25,10.6875,-48.0625,0.5,4.125,1.0625,-0.07000000029802322,0.7200000286102295,9.770000457763672,0.91607666015625,0.03564453125,-0.010498046875,-0.39935302734375,100563.640625,28.361263275146484,108128.0
-0.10999999940395355,0.7699999809265137,9.739999771118164,-17.0625,11.0625,-47.5625,0.3125,4.0625,1.625,-0.10000000149011612,0.7200000286102295,9.770000457763672,0.916259765625,0.03619384765625,-0.00921630859375,-0.39886474609375,100563.1875,28.36281394958496,108168.0
-0.10000000149011612,0.6399999856948853,9.760000228881836,-15.25,11.0625,-48.0,-0.6875,3.3125,-0.0625,-0.11999999731779099,0.7200000286102295,9.770000457763672,0.916259765625,0.03656005859375,-0.0081787109375,-0.39886474609375,100563.09375,28.364543914794922,108208.0
0.009999999776482582,0.6299999952316284,9.770000457763672,-14.875,11.6875,-48.0,-0.6875,3.5,-1.375,-0.15000000596046448,0.7099999785423279,9.770000457763672,0.91607666015625,0.03692626953125,-0.00701904296875,-0.3992919921875,100562.9453125,28.365840911865234,108248.0
-0.1599999964237213,0.5400000214576721,9.829999923706055,-14.875,11.6875,-48.0,0.4375,3.9375,-1.4375,-0.17000000178813934,0.7099999785423279,9.770000457763672,0.9158935546875,0.037353515625,-0.005859375,-0.399658203125,100563.3671875,28.368545532226562,108288.0
-0.1599999964237213,0.6100000143051147,9.770000457763672,-14.875,11.6875,-48.375,1.875,3.9375,-0.6875,-0.20000000298023224,0.7200000286102295,9.770000457763672,0.91583251953125,0.0384521484375,-0.0048828125,-0.39971923828125,100563.078125,28.368257522583008,108328.0
-0.09000000357627869,0.6499999761581421,9.630000114440918,-15.25,10.25,-47.1875,3.6875,4.75,-0.25,-0.2199999988079071,0.7300000190734863,9.770000457763672,0.915771484375,0.03997802734375,-0.00390625,-0.399658203125,100563.3046875,28.36861801147461,108368.0
-0.12999999523162842,0.699999988079071,9.770000457763672,-14.5,11.375,-48.375,3.6875,5.4375,0.0625,-0.25999999046325684,0.7599999904632568,9.770000457763672,0.915771484375,0.0418701171875,-0.0028076171875,-0.3995361328125,100563.203125,28.370059967041016,108408.0
0.10000000149011612,0.6600000262260437,9.729999542236328,-14.875,10.6875,-48.375,4.6875,6.3125,0.125,-0.28999999165534973,0.7799999713897705,9.770000457763672,0.91571044921875,0.0440673828125,-0.0013427734375,-0.39947509765625,100563.7421875,28.371124267578125,108448.0
0.4000000059604645,0.699999988079071,9.710000038146973,-14.875,10.6875,-48.375,3.4375,12.9375,-0.3125,-0.36000001430511475,0.8100000023841858,9.760000228881836,0.91552734375,0.047119140625,0.00250244140625,-0.39947509765625,100563.40625,28.37020492553711,108488.0
-0.5400000214576721,1.1100000143051147,9.779999732971191,-14.5,10.6875,-49.5625,5.5,21.0,-4.5,-0.47999998927116394,0.8399999737739563,9.75,0.91497802734375,0.0511474609375,0.00830078125,-0.40020751953125,100563.921875,28.371809005737305,108528.0
-0.7400000095367432,1.0499999523162842,9.8100004196167,-13.75,11.0625,-48.75,5.3125,21.0,-3.875,-0.6100000143051147,0.8700000047683716,9.739999771118164,0.91436767578125,0.055419921875,0.01397705078125,-0.40081787109375,100563.640625,28.371286392211914,108568.0
-0.8299999833106995,1.2100000381469727,9.729999542236328,-14.1875,11.0625,-49.1875,3.0625,19.625,-1.125,-0.75,0.8899999856948853,9.729999542236328,0.9140625,0.0592041015625,0.01959228515625,-0.4007568359375,100563.5625,28.37261962890625,108608.0
-1.690000057220459,1.3700000047683716,9.819999694824219,-12.6875,10.25,-48.375,-2.125,19.4375,2.125,-0.8799999952316284,0.8999999761581421,9.720000267028809,0.91412353515625,0.0621337890625,0.02587890625,-0.39990234375,100563.4375,28.372474670410156,108648.0
-1.7799999713897705,1.2999999523162842,9.770000457763672,-12.6875,10.25,-48.375,-2.75,19.625,1.875,-1.0199999809265137,0.8999999761581421,9.710000038146973,0.91412353515625,0.06439208984375,0.03216552734375,-0.39898681640625,100563.1640625,28.37236785888672,108688.0
-0.9300000071525574,0.5199999809265137,9.5600004196167,-11.5625,9.875,-48.375,2.625,20.75,-1.0,-1.1399999856948853,0.8999999761581421,9.6899995803833,0.9139404296875,0.06689453125,0.03802490234375,-0.39849853515625,100563.2421875,28.373430252075195,108728.0
-1.4600000381469727,1.059999942779541,9.699999809265137,-10.1875,9.875,-49.1875,-2.5,16.125,-1.1875,-1.25,0.8899999856948853,9.680000305175781,0.91363525390625,0.06829833984375,0.0433349609375,-0.3984375,100563.4375,28.374818801879883,108768.0
-1.5,0.8100000023841858,9.699999809265137,-10.75,9.5625,-49.5625,-3.375,13.1875,-1.25,-1.350000023841858,0.8700000047683716,9.670000076293945,0.913330078125,0.0689697265625,0.0479736328125,-0.3984375,100563.015625,28.374692916870117,108808.0
-1.440000057220459,0.699999988079071,9.680000305175781,-10.75,9.5625,-49.5625,-2.0,12.5,-0.6875,-1.4299999475479126,0.8500000238418579,9.65999984741211,0.91302490234375,0.070068359375,0.0521240234375,-0.39849853515625,100563.0546875,28.374603271484375,108848.0
-1.4800000190734863,0.6700000166893005,9.65999984741211,-8.6875,9.875,-50.0,1.0,13.8125,-3.5625,-1.5199999809265137,0.8399999737739563,9.649999618530273,0.91217041015625,0.0718994140625,0.05633544921875,-0.39947509765625,100563.1953125,28.375701904296875,108888.0
-1.3300000429153442,0.6800000071525574,9.600000381469727,-9.375,10.25,-50.375,1.9375,15.75,-7.5625,-1.6200000047683716,0.8399999737739563,9.630000114440918,0.91082763671875,0.07489013671875,0.05963134765625,-0.40155029296875,100562.9296875,28.37651252746582,108928.0
-2.309999942779541,1.190000057220459,10.029999732971191,-8.25,9.875,-49.1875,17.625,12.8125,2.9375,-1.690000057220459,0.9200000166893005,9.609999656677246,0.91064453125,0.080810546875,0.06121826171875,-0.400634765625,100563.4140625,28.378856658935547,108968.0
-1.6100000143051147,1.2200000286102295,9.640000343322754,-8.6875,10.25,-51.5625,2.8125,11.6875,6.625,-1.7599999904632568,0.9700000286102295,9.59000015258789,0.91143798828125,0.082763671875,0.064697265625,-0.3978271484375,100562.875,28.378297805786133,109008.0
-1.659999966621399,0.7300000190734863,9.569999694824219,-8.6875,10.25,-51.5625,-0.8125,11.25,9.25,-1.8300000429153442,0.9700000286102295,9.579999923706055,0.91217041015625,0.0849609375,0.068115234375,-0.39501953125,100562.8046875,28.37903594970703,109048.0
-1.3600000143051147,0.4699999988079071,9.539999961853027,-8.6875,9.875,-50.0,7.75,18.0,3.0625,-1.9299999475479126,1.0099999904632568,9.5600004196167,0.911865234375,0.0894775390625,0.072509765625,-0.39404296875,100562.765625,28.380748748779297,109088.0
-1.7999999523162842,0.5400000214576721,9.569999694824219,-6.5,9.5625,-50.25,14.4375,21.5625,-2.4375,-2.049999952316284,1.0800000429153442,9.520000457763672,0.910400390625,0.0968017578125,0.0775146484375,-0.394775390625,100563.1171875,28.380874633789062,109128.0
-1.7699999809265137,1.0700000524520874,9.5,-7.1875,9.1875,-49.875,14.75,25.9375,-7.5,-2.2100000381469727,1.1699999570846558,9.479999542236328,0.90814208984375,0.1046142578125,0.0838623046875,-0.3966064453125,100563.0859375,28.380388259887695,109168.0
-2.4000000953674316,1.4600000381469727,9.420000076293945,-5.75,8.875,-50.6875,12.25,27.25,-7.6875,-2.3499999046325684,1.2200000286102295,9.4399995803833,0.90582275390625,0.11090087890625,0.0911865234375,-0.3985595703125,100563.1328125,28.381181716918945,109208.0
-2.2300000190734863,1.2899999618530273,9.329999923706055,-5.75,8.875,-50.6875,5.0625,28.1875,-11.1875,-2.5299999713897705,1.2599999904632568,9.380000114440918,0.90313720703125,0.1156005859375,0.09979248046875,-0.40130615234375,100563.1875,28.382930755615234,109248.0
-2.450000047683716,1.0,9.220000267028809,-3.5625,8.5,-51.5,6.125,34.1875,-13.6875,-2.7899999618530273,1.2599999904632568,9.3100004196167,0.8997802734375,0.12139892578125,0.110107421875,-0.4044189453125,100563.4140625,28.384822845458984,109288.0
-3.0199999809265137,1.2300000190734863,9.180000305175781,-2.75,8.0625,-51.0625,4.0,34.4375,-15.25,-3.0199999809265137,1.2599999904632568,9.239999771118164,0.89617919921875,0.1268310546875,0.12054443359375,-0.40771484375,100563.140625,28.38220977783203,109328.0
-3.390000104904175,1.440000057220459,9.180000305175781,-1.0,7.375,-51.5,3.875,33.1875,-14.1875,-3.240000009536743,1.2599999904632568,9.15999984741211,0.8929443359375,0.13134765625,0.13055419921875,-0.41033935546875,100563.0390625,28.381975173950195,109368.0
-3.5899999141693115,1.4199999570846558,9.149999618530273,-0.6875,6.6875,-51.1875,-1.4375,29.625,-11.75,-3.390000104904175,1.2400000095367432,9.109999656677246,0.89080810546875,0.1334228515625,0.1376953125,-0.41192626953125,100562.8828125,28.38121795654297,109408.0
-3.319999933242798,1.3799999952316284,8.970000267028809,-0.6875,6.6875,-51.1875,-3.625,28.75,-10.6875,-3.569999933242798,1.190000057220459,9.050000190734863,0.88812255859375,0.1358642578125,0.1473388671875,-0.41363525390625,100562.7265625,28.381813049316406,109448.0
-3.859999895095825,1.100000023841858,8.869999885559082,-0.25,7.0,-50.25,-8.0625,31.875,-9.5,-3.809999942779541,1.1100000143051147,8.960000038146973,0.88494873046875,0.13787841796875,0.16119384765625,-0.41461181640625,100563.171875,28.384552001953125,109488.0
-4.380000114440918,0.9700000286102295,8.880000114440918,1.5,7.375,-51.5,-9.125,30.3125,-6.375,-4.010000228881836,1.0399999618530273,8.880000114440918,0.883056640625,0.13873291015625,0.17120361328125,-0.414306640625,100562.3828125,28.38141632080078,109528.0
-4.429999828338623,0.8299999833106995,8.930000305175781,3.375,8.0625,-51.875,-8.9375,24.375,-3.4375,-4.159999847412109,0.9800000190734863,8.819999694824219,0.881591796875,0.13897705078125,0.1795654296875,-0.41375732421875,100562.9609375,28.38253402709961,109568.0
-4.289999961853027,0.7400000095367432,8.890000343322754,4.5,7.6875,-50.25,-9.5625,21.3125,-4.125,-4.260000228881836,0.9200000166893005,8.779999732971191,0.880615234375,0.13873291015625,0.185302734375,-0.4134521484375,100562.6875,28.38105583190918,109608.0
-4.139999866485596,0.6700000166893005,8.739999771118164,4.5,7.6875,-50.25,-9.1875,20.625,-2.5625,-4.380000114440918,0.8600000143051147,8.720000267028809,0.87939453125,0.138427734375,0.19281005859375,-0.4127197265625,100562.71875,28.382841110229492,109648.0
-4.369999885559082,0.47999998927116394,8.729999542236328,5.5625,9.1875,-51.0625,-8.3125,23.9375,-1.0,-4.510000228881836,0.7900000214576721,8.670000076293945,0.87786865234375,0.1387939453125,0.202880859375,-0.4110107421875,100563.0546875,28.384174346923828,109688.0
-4.5,0.38999998569488525,8.670000076293945,5.1875,9.1875,-51.0625,-7.375,24.3125,0.5,-4.639999866485596,0.7400000095367432,8.600000381469727,0.8765869140625,0.139892578125,0.21112060546875,-0.40924072265625,100563.0859375,28.382875442504883,109728.0
-5.050000190734863,0.6000000238418579,8.479999542236328,7.0,8.5,-51.0625,-5.0625,25.3125,1.5,-4.78000020980835,0.699999988079071,8.520000457763672,0.87506103515625,0.1419677734375,0.21917724609375,-0.407470703125,100562.8125,28.38130760192871,109768.0
-6.210000038146973,1.2200000286102295,8.649999618530273,8.75,9.1875,-49.0,-5.5,22.125,-0.0625,-4.920000076293945,0.6700000166893005,8.449999809265137,0.8741455078125,0.14208984375,0.22430419921875,-0.40655517578125,100563.0078125,28.381885528564453,109808.0
-5.559999942779541,1.090000033378601,8.59000015258789,8.75,9.1875,-49.0,-14.6875,7.5625,-6.375,-5.0,0.6000000238418579,8.40999984741211,0.87335205078125,0.13763427734375,0.22900390625,-0.4072265625,100563.6953125,28.385761260986328,109848.0
-4.960000038146973,0.1899999976158142,8.359999656677246,8.875,9.1875,-51.0625,-18.9375,3.875,-12.1875,-5.03000020980835,0.44999998807907104,8.399999618530273,0.87225341796875,0.13189697265625,0.23321533203125,-0.4090576171875,100563.8203125,28.388681411743164,109888.0
-4.760000228881836,0.07000000029802322,8.319999694824219,9.0625,10.6875,-50.1875,-14.75,5.625,-9.1875,-5.059999942779541,0.3199999928474426,8.390000343322754,0.8712158203125,0.1278076171875,0.2374267578125,-0.41021728515625,100564.2734375,28.389707565307617,109928.0
-4.889999866485596,-0.3100000023841858,8.4399995803833,8.75,11.375,-49.0,-11.0625,7.5,-4.4375,-5.099999904632568,0.23000000417232513,8.359999656677246,0.8704833984375,0.12548828125,0.24127197265625,-0.4102783203125,100564.1953125,28.38932991027832,109968.0
-4.75,-0.38999998569488525,8.430000305175781,9.5,11.6875,-48.5625,-5.375,9.25,-1.8125,-5.150000095367432,0.18000000715255737,8.34000015258789,0.8697509765625,0.12408447265625,0.24462890625,-0.4102783203125,100563.421875,28.387310028076172,110008.0
-4.860000133514404,-0.4000000059604645,8.34000015258789,9.5,11.6875,-48.5625,-0.75,12.0625,-0.0625,-5.190000057220459,0.11999999731779099,8.3100004196167,0.86883544921875,0.1234130859375,0.248046875,-0.41033935546875,100563.9375,28.389257431030273,110048.0
-5.0,-0.2199999988079071,8.3100004196167,8.875,11.5,-49.875,3.8125,13.625,1.375,-5.25,0.10000000149011612,8.279999732971191,0.86767578125,0.1253662109375,0.25140380859375,-0.41015625,100564.1484375,28.390718460083008,110088.0
-5.360000133514404,-0.18000000715255737,8.289999961853027,10.25,12.5625,-50.5,4.5,15.6875,0.1875,-5.320000171661377,0.10999999940395355,8.229999542236328,0.86614990234375,0.1285400390625,0.25531005859375,-0.40997314453125,100563.84375,28.390087127685547,110128.0
-5.619999885559082,-0.14000000059604645,8.25,10.5625,11.0625,-50.0625,5.9375,14.0625,-0.3125,-5.409999847412109,0.14000000059604645,8.170000076293945,0.8646240234375,0.13214111328125,0.258544921875,-0.40997314453125,100563.9375,28.390193939208984,110168.0
-5.610000133514404,0.029999999329447746,8.170000076293945,11.25,11.6875,-49.25,5.6875,11.875,-1.125,-5.480000019073486,0.17000000178813934,8.130000114440918,0.8631591796875,0.1353759765625,0.2613525390625,-0.41021728515625,100564.2578125,28.391420364379883,110208.0
-5.630000114440918,0.4099999964237213,8.079999923706055,11.25,11.6875,-49.25,5.0,11.6875,-1.3125,-5.539999961853027,0.20000000298023224,8.079999923706055,0.860107421875,0.13885498046875,0.2637939453125,-0.4139404296875,100563.6328125,28.391185760498047,110248.0
-5.619999885559082,0.20000000298023224,8.010000228881836,10.875,9.875,-48.0625,0.8125,11.5625,-2.0,-5.599999904632568,0.1899999976158142,8.039999961853027,0.8577880859375,0.14111328125,0.266845703125,-0.41595458984375,100564.15625,28.392736434936523,110288.0
-5.949999809265137,0.25,7.989999771118164,11.6875,11.0625,-48.875,-1.0,10.625,-0.5,-5.670000076293945,0.1899999976158142,7.989999771118164,0.85687255859375,0.142333984375,0.27001953125,-0.41546630859375,100564.140625,28.39275360107422,110328.0
-5.840000152587891,0.15000000596046448,7.980000019073486,12.75,11.0625,-48.875,-0.5625,8.375,-1.1875,-5.71999979019165,0.18000000715255737,7.960000038146973,0.855224609375,0.14385986328125,0.27239990234375,-0.41680908203125,100563.8359375,28.392194747924805,110368.0
-5.989999771118164,0.18000000715255737,7.980000019073486,13.5,10.6875,-49.25,0.3125,8.5625,0.75,-5.760000228881836,0.18000000715255737,7.920000076293945,0.8536376953125,0.145751953125,0.2744140625,-0.41802978515625,100564.171875,28.39349365234375,110408.0
-6.010000228881836,0.3700000047683716,7.929999828338623,13.5,10.6875,-49.25,0.3125,5.5625,2.9375,-5.800000190734863,0.1899999976158142,7.900000095367432,0.8525390625,0.1475830078125,0.27557373046875,-0.4188232421875,100564.25,28.392736434936523,110448.0
-5.840000152587891,0.38999998569488525,7.880000114440918,13.875,10.25,-48.875,-2.125,3.9375,3.625,-5.829999923706055,0.20000000298023224,7.880000114440918,0.85272216796875,0.14794921875,0.27685546875,-0.41748046875,100564.4921875,28.39333152770996,110488.0
-5.699999809265137,0.28999999165534973,7.909999847412109,14.5625,11.0625,-47.75,-4.4375,4.3125,2.4375,-5.849999904632568,0.20000000298023224,7.860000133514404,0.8529052734375,0.1475830078125,0.27850341796875,-0.4161376953125,100565.1328125,28.393781661987305,110528.0
-5.829999923706055,0.20999999344348907,7.909999847412109,13.875,10.6875,-48.5,-4.125,4.875,0.9375,-5.869999885559082,0.18000000715255737,7.840000152587891,0.8519287109375,0.147705078125,0.27996826171875,-0.41717529296875,100564.59375,28.391799926757812,110568.0
-5.889999866485596,0.019999999552965164,7.940000057220459,13.875,10.25,-49.25,-1.8125,3.5625,-1.75,-5.889999866485596,0.1599999964237213,7.829999923706055,0.85009765625,0.14825439453125,0.2808837890625,-0.4200439453125,100564.21875,28.3914737701416,110608.0
-5.960000038146973,-0.029999999329447746,7.920000076293945,13.875,10.25,-49.25,-0.4375,3.0,-2.8125,-5.909999847412109,0.15000000596046448,7.820000171661377,0.8485107421875,0.14886474609375,0.28155517578125,-0.422607421875,100564.109375,28.39122200012207,110648.0
-6.139999866485596,0.05999999865889549,7.909999847412109,13.5,11.0625,-48.5,0.125,1.0625,-3.375,-5.920000076293945,0.12999999523162842,7.809999942779541,0.84765625,0.14874267578125,0.2818603515625,-0.42413330078125,100564.5234375,28.392772674560547,110688.0
-5.710000038146973,0.0,7.869999885559082,14.5625,11.6875,-49.25,-0.5625,0.75,-2.3125,-5.920000076293945,0.11999999731779099,7.809999942779541,0.84735107421875,0.1483154296875,0.28216552734375,-0.4246826171875,100564.5546875,28.391618728637695,110728.0
-5.789999961853027,0.019999999552965164,7.960000038146973,13.875,10.6875,-48.0625,-1.6875,0.0,-0.1875,-5.920000076293945,0.10000000149011612,7.809999942779541,0.8465576171875,0.14825439453125,0.28192138671875,-0.42645263671875,100564.796875,28.391925811767578,110768.0
-5.840000152587891,-0.09000000357627869,7.980000019073486,13.875,10.6875,-48.0625,-0.75,0.8125,1.0,-5.920000076293945,0.09000000357627869,7.809999942779541,0.8466796875,0.14788818359375,0.281982421875,-0.42626953125,100564.953125,28.39444923400879,110808.0
-5.849999904632568,-0.07999999821186066,7.940000057220459,13.875,12.5,-48.0625,1.1875,0.125,0.1875,-5.909999847412109,0.09000000357627869,7.809999942779541,0.846435546875,0.148193359375,0.28179931640625,-0.4268798828125,100564.546875,28.394033432006836,110848.0
-5.840000152587891,0.10000000149011612,7.909999847412109,15.25,11.375,-48.875,1.125,0.8125,0.25,-5.909999847412109,0.10000000149011612,7.809999942779541,0.84588623046875,0.1488037109375,0.28173828125,-0.427734375,100564.640625,28.394304275512695,110888.0
-6.059999942779541,0.2800000011920929,7.900000095367432,14.25,11.375,-48.5,-1.8125,0.3125,0.25,-5.920000076293945,0.10000000149011612,7.809999942779541,0.84600830078125,0.14837646484375,0.281982421875,-0.427490234375,100564.8515625,28.3939266204834,110928.0
-6.309999942779541,-0.07999999821186066,7.949999809265137,13.875,10.6875,-48.0625,-2.1875,-1.1875,-0.5625,-5.909999847412109,0.09000000357627869,7.809999942779541,0.84527587890625,0.148193359375,0.28106689453125,-0.4295654296875,100565.078125,28.395368576049805,110968.0
-6.300000190734863,-0.28999999165534973,7.800000190734863,13.875,10.6875,-48.0625,2.1875,-5.8125,-1.8125,-5.889999866485596,0.09000000357627869,7.829999923706055,0.844970703125,0.14862060546875,0.27862548828125,-0.431640625,100565.2109375,28.396467208862305,111008.0
-6.489999771118164,0.009999999776482582,7.860000133514404,13.5,11.6875,-48.0625,9.9375,-10.0625,-2.1875,-5.849999904632568,0.11999999731779099,7.860000133514404,0.8447265625,0.14971923828125,0.27435302734375,-0.4344482421875,100565.1640625,28.39670181274414,111048.0
-6.449999809265137,0.5400000214576721,7.800000190734863,14.25,11.375,-48.875,6.625,-17.8125,-3.875,-5.769999980926514,0.15000000596046448,7.920000076293945,0.844970703125,0.1485595703125,0.2684326171875,-0.4381103515625,100565.1796875,28.395151138305664,111088.0
-5.760000228881836,0.6600000262260437,7.78000020980835,13.0625,11.0625,-48.875,-2.25,-17.6875,-2.6875,-5.670000076293945,0.14000000059604645,7.989999771118164,0.8463134765625,0.14483642578125,0.2640380859375,-0.43939208984375,100565.2890625,28.39513397216797,111128.0
-5.590000152587891,0.27000001072883606,7.989999771118164,12.375,10.6875,-46.875,-7.8125,-16.875,-1.8125,-5.599999904632568,0.10999999940395355,8.039999961853027,0.8477783203125,0.13983154296875,0.2606201171875,-0.440185546875,100565.5234375,28.39513397216797,111168.0
-5.449999809265137,-0.05999999865889549,8.130000114440918,12.375,10.6875,-46.875,-9.1875,-15.375,-1.875,-5.519999980926514,0.05999999865889549,8.100000381469727,0.8489990234375,0.13494873046875,0.2576904296875,-0.44110107421875,100565.6328125,28.398576736450195,111208.0
-5.340000152587891,-0.27000001072883606,8.210000038146973,13.0625,11.0625,-50.0625,-7.625,-15.0,-3.4375,-5.409999847412109,-0.009999999776482582,8.170000076293945,0.849853515625,0.12994384765625,0.25457763671875,-0.4427490234375,100565.8671875,28.399442672729492,111248.0
-5.570000171661377,-0.2800000011920929,8.369999885559082,11.25,11.6875,-49.25,-6.125,-18.1875,-6.375,-5.320000171661377,-0.07000000029802322,8.229999542236328,0.85028076171875,0.12493896484375,0.25048828125,-0.4456787109375,100565.8046875,28.398937225341797,111288.0
-5.710000038146973,-0.14000000059604645,8.430000305175781,10.5625,12.0625,-50.0625,-6.5625,-22.125,-8.25,-5.239999771118164,-0.11999999731779099,8.279999732971191,0.85113525390625,0.1187744140625,0.2452392578125,-0.44866943359375,100565.84375,28.39740562438965,111328.0
-5.630000114440918,-0.3100000023841858,8.449999809265137,9.875,12.5,-48.875,-6.25,-29.875,-10.75,-5.099999904632568,-0.1899999976158142,8.369999885559082,0.8515625,0.113525390625,0.24029541015625,-0.451904296875,100565.859375,28.396827697753906,111368.0
-5.360000133514404,-0.28999999165534973,8.529999732971191,9.875,12.5,-48.875,-3.625,-40.125,-15.125,-4.920000076293945,-0.25999999046325684,8.470000267028809,0.85223388671875,0.10540771484375,0.23040771484375,-0.45770263671875,100565.6640625,28.396394729614258,111408.0
-4.679999828338623,-0.2199999988079071,8.470000267028809,8.375,12.875,-48.5,-3.0625,-43.0,-17.9375,-4.599999904632568,-0.36000001430511475,8.640000343322754,0.85302734375,0.0943603515625,0.21624755859375,-0.46551513671875,100565.9765625,28.396648406982422,111448.0
-4.28000020980835,-0.18000000715255737,8.529999732971191,7.25,13.1875,-49.25,-3.3125,-42.8125,-15.1875,-4.349999904632568,-0.41999998688697815,8.770000457763672,0.8538818359375,0.08551025390625,0.2047119140625,-0.4708251953125,100566.015625,28.39453887939453,111488.0
-3.75,-0.41999998688697815,8.8100004196167,5.0625,13.1875,-48.875,-4.375,-44.375,-12.8125,-4.079999923706055,-0.49000000953674316,8.899999618530273,0.85498046875,0.07635498046875,0.1932373046875,-0.47528076171875,100565.734375,28.394105911254883,111528.0
-3.4000000953674316,-0.5699999928474426,8.880000114440918,1.75,13.1875,-49.75,-4.125,-42.0625,-11.5625,-3.880000114440918,-0.5299999713897705,8.979999542236328,0.85479736328125,0.07025146484375,0.18475341796875,-0.4798583984375,100565.3984375,28.393205642700195,111568.0
-3.299999952316284,-0.7400000095367432,9.050000190734863,1.75,13.1875,-49.75,-2.3125,-40.0625,-10.3125,-3.630000114440918,-0.5799999833106995,9.09000015258789,0.85546875,0.06243896484375,0.1737060546875,-0.48388671875,100565.6875,28.395980834960938,111608.0
-3.4800000190734863,-0.8299999833106995,9.210000038146973,1.375,13.5625,-49.75,0.875,-41.3125,-11.375,-3.369999885559082,-0.6100000143051147,9.180000305175781,0.85595703125,0.05328369140625,0.1583251953125,-0.48931884765625,100566.2265625,28.399803161621094,111648.0
-2.9700000286102295,-0.75,9.199999809265137,-0.75,14.25,-50.0625,3.25,-45.75,-12.5625,-3.0899999141693115,-0.6200000047683716,9.279999732971191,0.85614013671875,0.04632568359375,0.1448974609375,-0.493896484375,100567.3203125,28.400938034057617,111688.0
-2.9200000762939453,-0.6299999952316284,9.319999694824219,-2.1875,14.0,-49.25,4.4375,-43.6875,-10.75,-2.809999942779541,-0.6200000047683716,9.369999885559082,0.8565673828125,0.0396728515625,0.1314697265625,-0.4974365234375,100566.7265625,28.398324966430664,111728.0
-2.680000066757202,-0.7200000286102295,9.380000114440918,-3.25,13.1875,-50.0,5.4375,-47.6875,-7.25,-2.5199999809265137,-0.6100000143051147,9.449999809265137,0.85711669921875,0.03448486328125,0.12030029296875,-0.4996337890625,100566.7734375,28.398090362548828,111768.0
-2.059999942779541,-0.30000001192092896,9.239999771118164,-3.25,13.1875,-50.0,4.125,-51.125,-5.375,-2.190000057220459,-0.5799999833106995,9.529999732971191,0.85772705078125,0.02667236328125,0.10491943359375,-0.50262451171875,100566.90625,28.39908218383789,111808.0
-1.6200000047683716,-1.0099999904632568,9.579999923706055,-7.25,13.1875,-49.5625,0.6875,-50.75,-3.875,-1.8600000143051147,-0.5799999833106995,9.609999656677246,0.85845947265625,0.01849365234375,0.090087890625,-0.50457763671875,100567.4921875,28.4027042388916,111848.0
-1.5800000429153442,-1.2000000476837158,9.630000114440918,-8.75,12.875,-48.5,8.375,-49.0,-6.625,-1.5299999713897705,-0.5600000023841858,9.65999984741211,0.858642578125,0.0128173828125,0.0740966796875,-0.50701904296875,100567.203125,28.401371002197266,111888.0
-1.3600000143051147,-0.49000000953674316,9.529999732971191,-10.25,13.5625,-48.375,17.0,-50.25,-5.625,-1.2100000381469727,-0.46000000834465027,9.720000267028809,0.85888671875,0.00885009765625,0.05645751953125,-0.50897216796875,100566.3515625,28.39922523498535,111928.0
-0.800000011920929,-0.4000000059604645,9.489999771118164,-12.75,13.1875,-47.5625,17.8125,-53.25,-1.75,-0.8600000143051147,-0.3499999940395355,9.760000228881836,0.8594970703125,0.0050048828125,0.0379638671875,-0.50970458984375,100565.9453125,28.399351119995117,111968.0
-0.38999998569488525,-0.4000000059604645,9.59000015258789,-12.75,13.1875,-47.5625,20.625,-53.75,1.5625,-0.5099999904632568,-0.2199999988079071,9.789999961853027,0.8602294921875,0.001953125,0.0186767578125,-0.509521484375,100566.765625,28.403480529785156,112008.0
0.23999999463558197,0.3199999928474426,9.539999961853027,-15.0,12.5,-47.875,23.625,-53.625,0.0625,-0.15000000596046448,-0.07000000029802322,9.800000190734863,0.85992431640625,-0.0006103515625,-0.000732421875,-0.5103759765625,100567.1796875,28.404850006103516,112048.0
0.6499999761581421,0.49000000953674316,9.569999694824219,-17.875,10.6875,-45.875,17.8125,-50.0625,-1.9375,0.18000000715255737,0.05000000074505806,9.800000190734863,0.8594970703125,-0.0040283203125,-0.01812744140625,-0.51080322265625,100567.4140625,28.40530014038086,112088.0
1.2100000381469727,0.4300000071525574,9.65999984741211,-19.0625,11.0625,-46.0,15.4375,-47.5,-2.5,0.5,0.1599999964237213,9.789999961853027,0.8587646484375,-0.00750732421875,-0.03436279296875,-0.51116943359375,100567.34375,28.405643463134766,112128.0
1.850000023841858,0.7200000286102295,9.539999961853027,-21.25,11.375,-45.5625,15.4375,-41.375,-5.9375,0.7900000214576721,0.27000001072883606,9.770000457763672,0.8580322265625,-0.00982666015625,-0.0484619140625,-0.51116943359375,100567.0859375,28.405319213867188,112168.0
1.899999976158142,0.7300000190734863,9.539999961853027,-21.25,11.375,-45.5625,11.875,-28.25,-5.0,1.0099999904632568,0.36000001430511475,9.739999771118164,0.85675048828125,-0.0111083984375,-0.05841064453125,-0.5123291015625,100567.5078125,28.407373428344727,112208.0
1.7699999809265137,0.5,9.609999656677246,-22.375,9.1875,-44.6875,10.0625,-21.125,-6.3125,1.190000057220459,0.4399999976158142,9.720000267028809,0.8555908203125,-0.01226806640625,-0.0692138671875,-0.51287841796875,100567.765625,28.40834617614746,112248.0
2.0799999237060547,1.100000023841858,9.529999732971191,-23.0625,9.1875,-44.375,13.5,-16.5625,-5.875,1.350000023841858,0.5400000214576721,9.6899995803833,0.85418701171875,-0.0113525390625,-0.0767822265625,-0.51409912109375,100568.0703125,28.409067153930664,112288.0
2.049999952316284,0.9399999976158142,9.59000015258789,-23.875,8.5,-44.5625,8.5625,-8.4375,-4.75,1.4299999475479126,0.6100000143051147,9.680000305175781,0.85369873046875,-0.0098876953125,-0.0821533203125,-0.51409912109375,100568.0078125,28.40904998779297,112328.0
1.8700000047683716,1.1699999570846558,9.600000381469727,-23.875,9.1875,-43.0,7.9375,-1.9375,-3.25,1.5,0.699999988079071,9.65999984741211,0.85455322265625,-0.0069580078125,-0.08612060546875,-0.5120849609375,100567.140625,28.407859802246094,112368.0
1.75,1.399999976158142,9.579999923706055,-23.875,9.1875,-43.0,4.375,2.3125,-1.6875,1.5099999904632568,0.7799999713897705,9.649999618530273,0.855224609375,-0.00433349609375,-0.08758544921875,-0.5107421875,100568.171875,28.409860610961914,112408.0
1.649999976158142,1.149999976158142,9.619999885559082,-25.25,8.0625,-44.0625,-0.75,3.9375,1.0,1.5,0.8100000023841858,9.649999618530273,0.85693359375,-0.00311279296875,-0.08697509765625,-0.508056640625,100568.546875,28.410799026489258,112448.0
1.440000057220459,1.0299999713897705,9.619999885559082,-23.875,7.6875,-44.375,-2.9375,4.75,2.5625,1.4700000286102295,0.800000011920929,9.65999984741211,0.857421875,-0.00299072265625,-0.08526611328125,-0.5074462890625,100568.5859375,28.410329818725586,112488.0
1.4700000286102295,0.8600000143051147,9.630000114440918,-24.1875,7.6875,-44.0625,-4.3125,4.8125,2.6875,1.440000057220459,0.7799999713897705,9.65999984741211,0.8592529296875,-0.003173828125,-0.08306884765625,-0.50469970703125,100568.25,28.40998649597168,112528.0
1.4600000381469727,0.7200000286102295,9.65999984741211,-25.0,7.6875,-43.25,-3.9375,6.25,2.75,1.409999966621399,0.75,9.670000076293945,0.8603515625,-0.003173828125,-0.08056640625,-0.50323486328125,100568.5390625,28.410888671875,112568.0
1.409999966621399,0.6700000166893005,9.699999809265137,-25.0,7.6875,-43.25,-3.0,7.6875,0.75,1.3600000143051147,0.7300000190734863,9.680000305175781,0.86212158203125,-0.00262451171875,-0.07781982421875,-0.50067138671875,100569.1171875,28.410978317260742,112608.0
1.309999942779541,0.5699999928474426,9.65999984741211,-23.5,8.5,-44.375,-2.5,7.25,-1.875,1.309999942779541,0.7099999785423279,9.6899995803833,0.8624267578125,-0.0020751953125,-0.0751953125,-0.5006103515625,100569.0234375,28.409320831298828,112648.0
1.25,0.5799999833106995,9.65999984741211,-24.5625,8.0625,-44.0625,-2.8125,8.9375,-0.6875,1.2599999904632568,0.6899999976158142,9.699999809265137,0.862548828125,-0.00146484375,-0.0721435546875,-0.50079345703125,100569.0546875,28.409229278564453,112688.0
0.8399999737739563,0.5400000214576721,9.710000038146973,-24.1875,8.0625,-44.0,-2.25,6.375,-0.9375,1.2100000381469727,0.6700000166893005,9.699999809265137,0.86285400390625,-0.00103759765625,-0.0701904296875,-0.5006103515625,100569.0,28.40915870666504,112728.0
0.6399999856948853,0.5099999904632568,9.739999771118164,-24.1875,8.0625,-44.0,-0.3125,0.8125,-1.875,1.190000057220459,0.6700000166893005,9.710000038146973,0.863525390625,-0.000732421875,-0.069580078125,-0.49951171875,100569.0,28.409103393554688,112768.0
0.7799999713897705,0.550000011920929,9.710000038146973,-22.6875,8.0625,-45.25,-0.125,-2.1875,-0.75,1.1699999570846558,0.6600000262260437,9.710000038146973,0.86444091796875,-0.00054931640625,-0.06884765625,-0.4979248046875,100568.953125,28.409645080566406,112808.0
0.7200000286102295,0.5600000023841858,9.729999542236328,-23.5,8.875,-44.875,1.0625,-4.6875,-0.25,1.1699999570846558,0.6600000262260437,9.710000038146973,0.864990234375,-0.0006103515625,-0.069091796875,-0.49700927734375,100569.4609375,28.40946388244629,112848.0
0.7699999809265137,0.5,9.760000228881836,-22.6875,8.0625,-44.75,2.1875,-8.875,-1.25,1.190000057220459,0.6600000262260437,9.710000038146973,0.864501953125,-0.0010986328125,-0.07110595703125,-0.49755859375,100569.359375,28.408761978149414,112888.0
1.059999942779541,0.8100000023841858,9.680000305175781,-23.875,9.1875,-42.375,2.6875,-12.0,-4.0,1.25,0.6800000071525574,9.699999809265137,0.86383056640625,-0.002685546875,-0.07476806640625,-0.49822998046875,100569.375,28.40766143798828,112928.0
1.4700000286102295,0.6800000071525574,9.670000076293945,-23.875,9.1875,-42.375,-0.5625,-11.5,-7.375,1.3200000524520874,0.6800000071525574,9.6899995803833,0.86224365234375,-0.00408935546875,-0.0780029296875,-0.50042724609375,100569.21875,28.40740966796875,112968.0
1.2300000190734863,0.8299999833106995,9.649999618530273,-23.875,7.6875,-44.0625,-0.25,-10.3125,-8.375,1.3799999952316284,0.699999988079071,9.680000305175781,0.860595703125,-0.005615234375,-0.08087158203125,-0.5028076171875,100569.203125,28.406633377075195,113008.0
1.159999966621399,0.6200000047683716,9.630000114440918,-23.875,7.6875,-42.375,-1.3125,-13.0,-9.875,1.4500000476837158,0.699999988079071,9.670000076293945,0.8585205078125,-0.00775146484375,-0.08416748046875,-0.50579833984375,100569.375,28.406057357788086,113048.0
1.1399999856948853,0.6499999761581421,9.670000076293945,-25.6875,7.6875,-43.5625,0.5625,-16.5625,-10.875,1.5299999713897705,0.699999988079071,9.649999618530273,0.85614013671875,-0.00982666015625,-0.08831787109375,-0.50897216796875,100569.5078125,28.405048370361328,113088.0
1.159999966621399,0.7599999904632568,9.600000381469727,-25.25,8.5,-44.375,0.5625,-21.6875,-12.375,1.600000023841858,0.7200000286102295,9.640000343322754,0.8543701171875,-0.0126953125,-0.09442138671875,-0.5108642578125,100570.0625,28.406599044799805,113128.0
1.4600000381469727,0.7699999809265137,9.579999923706055,-25.25,8.5,-44.375,-2.75,-25.4375,-12.8125,1.7400000095367432,0.7300000190734863,9.619999885559082,0.85113525390625,-0.01788330078125,-0.10174560546875,-0.5146484375,100569.921875,28.409500122070312,113168.0
1.690000057220459,0.6899999976158142,9.4399995803833,-25.6875,7.0,-43.25,-3.25,-31.5625,-16.0625,1.9700000286102295,0.7200000286102295,9.569999694824219,0.84716796875,-0.023681640625,-0.1104736328125,-0.51922607421875,100570.609375,28.412240982055664,113208.0
2.25,0.8299999833106995,9.399999618530273,-27.1875,7.0,-42.375,-3.5625,-33.1875,-17.1875,2.180000066757202,0.7300000190734863,9.529999732971191,0.84295654296875,-0.02960205078125,-0.11920166015625,-0.52374267578125,100571.1640625,28.412582397460938,113248.0
2.630000114440918,0.5099999904632568,9.430000305175781,-28.5625,7.0,-40.875,-0.5,-26.875,-13.1875,2.359999895095825,0.7400000095367432,9.479999542236328,0.83953857421875,-0.03387451171875,-0.12701416015625,-0.52716064453125,100571.3984375,28.413970947265625,113288.0
2.5199999809265137,0.800000011920929,9.460000038146973,-30.0,7.0,-40.5,2.6875,-26.5625,-10.9375,2.4800000190734863,0.7599999904632568,9.449999809265137,0.83740234375,-0.036376953125,-0.13311767578125,-0.5289306640625,100571.4765625,28.413881301879883,113328.0
2.5799999237060547,1.0800000429153442,9.350000381469727,-30.0,7.0,-40.5,3.4375,-25.5625,-8.6875,2.640000104904175,0.800000011920929,9.399999618530273,0.834716796875,-0.0394287109375,-0.14105224609375,-0.53082275390625,100571.65625,28.416675567626953,113368.0
2.700000047683716,1.090000033378601,9.319999694824219,-31.5,6.6875,-39.25,1.0625,-26.3125,-7.1875,2.8299999237060547,0.8399999737739563,9.34000015258789,0.83111572265625,-0.04425048828125,-0.15045166015625,-0.53350830078125,100572.25,28.419937133789062,113408.0
2.7300000190734863,0.8899999856948853,9.260000228881836,-32.1875,5.875,-38.0625,-1.625,-27.0625,-11.6875,2.990000009536743,0.8600000143051147,9.289999961853027,0.82781982421875,-0.04888916015625,-0.15802001953125,-0.53607177734375,100572.1328125,28.419504165649414,113448.0
3.200000047683716,0.7900000214576721,9.239999771118164,-32.1875,6.25,-39.0,-2.1875,-27.5,-14.625,3.1600000858306885,0.8700000047683716,9.239999771118164,0.82342529296875,-0.05316162109375,-0.16571044921875,-0.5400390625,100573.109375,28.422046661376953,113488.0
3.3499999046325684,1.0199999809265137,9.029999732971191,-34.375,5.5625,-36.875,0.3125,-27.4375,-17.125,3.2699999809265137,0.8999999761581421,9.1899995803833,0.81988525390625,-0.05615234375,-0.17156982421875,-0.54327392578125,100573.2109375,28.422821044921875,113528.0
3.2799999713897705,1.1799999475479126,9.100000381469727,-34.375,5.5625,-36.875,-3.0,-26.4375,-16.4375,3.430000066757202,0.9300000071525574,9.130000114440918,0.8153076171875,-0.06103515625,-0.1785888671875,-0.54742431640625,100572.8984375,28.42453384399414,113568.0
3.240000009536743,0.9300000071525574,9.039999961853027,-34.5,4.5,-39.0,-3.4375,-28.375,-13.75,3.5799999237060547,0.9399999976158142,9.069999694824219,0.81024169921875,-0.0673828125,-0.1876220703125,-0.55120849609375,100573.0859375,28.424678802490234,113608.0
3.559999942779541,0.7799999713897705,8.920000076293945,-36.25,5.1875,-36.875,-1.4375,-31.875,-11.125,3.799999952316284,0.9599999785423279,8.979999542236328,0.80657958984375,-0.0726318359375,-0.19677734375,-0.55267333984375,100572.0625,28.42132568359375,113648.0
3.880000114440918,1.1799999475479126,8.819999694824219,-36.875,4.75,-37.0,1.8125,-34.1875,-9.375,3.950000047683716,0.9900000095367432,8.920000076293945,0.802490234375,-0.078125,-0.20654296875,-0.5543212890625,100572.640625,28.4205322265625,113688.0
3.9100000858306885,1.2699999809265137,8.75,-38.75,4.0625,-35.0,-0.75,-35.5,-10.125,4.150000095367432,1.0199999809265137,8.819999694824219,0.79901123046875,-0.0828857421875,-0.21380615234375,-0.55584716796875,100572.7265625,28.41995620727539,113728.0
3.940000057220459,1.1100000143051147,8.5600004196167,-38.75,4.0625,-35.0,-2.0625,-40.125,-11.5,4.360000133514404,1.0399999618530273,8.720000267028809,0.79376220703125,-0.08984375,-0.2242431640625,-0.55816650390625,100572.296875,28.421236038208008,113768.0
3.9600000381469727,0.9900000095367432,8.40999984741211,-39.0625,3.6875,-33.375,-1.3125,-46.1875,-14.3125,4.590000152587891,1.0700000524520874,8.59000015258789,0.78765869140625,-0.09710693359375,-0.23638916015625,-0.560546875,100572.171875,28.421630859375,113808.0
4.599999904632568,1.4900000095367432,8.229999542236328,-40.5625,4.5,-31.375,2.5625,-56.75,-21.0625,4.860000133514404,1.1299999952316284,8.430000305175781,0.779052734375,-0.10546875,-0.25225830078125,-0.564208984375,100572.015625,28.419612884521484,113848.0
5.400000095367432,1.649999976158142,7.96999979019165,-41.5625,3.375,-30.0,-1.3125,-54.9375,-22.8125,5.159999847412109,1.2100000381469727,8.239999771118164,0.76995849609375,-0.11456298828125,-0.2669677734375,-0.568115234375,100572.8671875,28.419252395629883,113888.0
5.860000133514404,1.1699999570846558,7.769999980926514,-44.5625,3.0,-28.375,-4.625,-52.3125,-16.5625,5.440000057220459,1.2599999904632568,8.050000190734863,0.76220703125,-0.1241455078125,-0.28021240234375,-0.5701904296875,100572.8515625,28.418981552124023,113928.0
6.010000228881836,1.0399999618530273,7.599999904632568,-44.5625,3.0,-28.375,2.1875,-48.4375,-5.6875,5.699999809265137,1.2899999618530273,7.869999885559082,0.75689697265625,-0.132080078125,-0.29351806640625,-0.56878662109375,100573.328125,28.421091079711914,113968.0
6.659999847412109,1.2899999618530273,7.369999885559082,-44.875,2.375,-26.5,7.4375,-43.5625,0.25,5.940000057220459,1.3300000429153442,7.679999828338623,0.75323486328125,-0.1383056640625,-0.30584716796875,-0.56561279296875,100573.4921875,28.421524047851562,114008.0
7.019999980926514,1.309999942779541,7.210000038146973,-46.0625,2.0,-24.875,11.0,-34.6875,3.1875,6.139999866485596,1.3700000047683716,7.510000228881836,0.7508544921875,-0.14227294921875,-0.31634521484375,-0.56207275390625,100573.1484375,28.419523239135742,114048.0
6.769999980926514,1.3899999856948853,7.25,-46.0625,2.375,-23.25,10.6875,-25.0,2.6875,6.300000190734863,1.409999966621399,7.380000114440918,0.74993896484375,-0.14422607421875,-0.32513427734375,-0.5577392578125,100573.2109375,28.419198989868164,114088.0
6.550000190734863,1.5299999713897705,7.03000020980835,-47.5,2.0,-22.5,12.1875,-23.0625,1.0,6.409999847412109,1.4600000381469727,7.260000228881836,0.7486572265625,-0.14544677734375,-0.333251953125,-0.5543212890625,100573.3203125,28.42009925842285,114128.0
6.769999980926514,1.4900000095367432,6.989999771118164,-47.5,2.0,-22.5,10.875,-24.125,4.0625,6.53000020980835,1.5,7.150000095367432,0.74786376953125,-0.147216796875,-0.3414306640625,-0.5499267578125,100572.9765625,28.419612884521484,114168.0
6.820000171661377,1.5199999809265137,6.909999847412109,-47.375,2.0,-21.25,13.625,-20.375,6.3125,6.639999866485596,1.5399999618530273,7.039999961853027,0.74822998046875,-0.147705078125,-0.3489990234375,-0.5445556640625,100573.6953125,28.419828414916992,114208.0
6.800000190734863,1.7100000381469727,6.840000152587891,-47.0,2.375,-19.6875,13.0625,-19.125,4.75,6.739999771118164,1.5800000429153442,6.929999828338623,0.747314453125,-0.14849853515625,-0.3560791015625,-0.54095458984375,100573.4609375,28.41653060913086,114248.0
6.840000152587891,1.909999966621399,6.699999809265137,-48.1875,2.0,-20.375,10.4375,-19.5625,1.5625,6.840000152587891,1.6200000047683716,6.829999923706055,0.74639892578125,-0.14892578125,-0.36322021484375,-0.537353515625,100573.375,28.41636848449707,114288.0
7.139999866485596,1.9700000286102295,6.539999961853027,-48.5,2.375,-19.1875,6.5625,-18.5,-0.25,6.929999828338623,1.659999966621399,6.730000019073486,0.7454833984375,-0.14984130859375,-0.369384765625,-0.5341796875,100573.734375,28.416818618774414,114328.0
7.409999847412109,1.690000057220459,6.510000228881836,-48.5,2.375,-19.1875,3.4375,-17.125,-1.5625,7.010000228881836,1.690000057220459,6.639999866485596,0.7437744140625,-0.1513671875,-0.374755859375,-0.53240966796875,100573.703125,28.416584014892578,114368.0
7.78000020980835,1.7799999713897705,6.360000133514404,-48.5,2.0,-18.0,5.125,-12.25,-0.6875,7.070000171661377,1.7100000381469727,6.559999942779541,0.74334716796875,-0.15142822265625,-0.37884521484375,-0.530029296875,100573.5234375,28.41582679748535,114408.0
7.590000152587891,1.9299999475479126,6.289999961853027,-49.5625,2.375,-17.25,6.25,-7.375,-0.4375,7.110000133514404,1.7400000095367432,6.510000228881836,0.742431640625,-0.15142822265625,-0.38262939453125,-0.5286865234375,100573.671875,28.41584587097168,114448.0
7.579999923706055,1.9299999475479126,6.260000228881836,-48.5,2.375,-17.1875,5.625,-3.0625,0.125,7.150000095367432,1.7699999809265137,6.460000038146973,0.74310302734375,-0.14996337890625,-0.38580322265625,-0.52581787109375,100573.5,28.41584587097168,114488.0
7.5,2.009999990463257,6.300000190734863,-49.1875,2.0,-16.75,4.6875,-0.9375,-1.0,7.170000076293945,1.809999942779541,6.429999828338623,0.7435302734375,-0.14825439453125,-0.38787841796875,-0.524169921875,100572.9453125,28.41411590576172,114528.0
7.429999828338623,2.009999990463257,6.260000228881836,-49.1875,2.0,-16.75,1.8125,0.75,-0.5625,7.179999828338623,1.8300000429153442,6.409999847412109,0.7440185546875,-0.147216796875,-0.38885498046875,-0.5230712890625,100572.8515625,28.41398811340332,114568.0
7.480000019073486,1.8600000143051147,6.269999980926514,-48.75,1.5625,-16.75,1.5,2.5,0.1875,7.179999828338623,1.840000033378601,6.409999847412109,0.7454833984375,-0.14556884765625,-0.3890380859375,-0.521240234375,100573.2109375,28.414457321166992,114608.0
7.360000133514404,1.909999966621399,6.360000133514404,-50.0,2.0,-17.1875,2.875,4.1875,0.4375,7.159999847412109,1.850000023841858,6.420000076293945,0.74615478515625,-0.14422607421875,-0.38873291015625,-0.52093505859375,100573.40625,28.414222717285156,114648.0
7.480000019073486,1.9700000286102295,6.28000020980835,-49.5625,1.5625,-17.1875,3.5,7.0,1.4375,7.150000095367432,1.8600000143051147,6.440000057220459,0.74798583984375,-0.1419677734375,-0.3880615234375,-0.5194091796875,100573.3984375,28.415790557861328,114688.0
7.980000019073486,1.9700000286102295,6.329999923706055,-49.5625,1.5625,-17.1875,3.0,12.3125,2.875,7.110000133514404,1.8600000143051147,6.480000019073486,0.75128173828125,-0.13848876953125,-0.38519287109375,-0.5177001953125,100573.2109375,28.417539596557617,114728.0
7.920000076293945,1.7400000095367432,6.409999847412109,-48.75,1.5625,-17.5625,7.25,21.5625,1.1875,7.03000020980835,1.8700000047683716,6.559999942779541,0.7557373046875,-0.13238525390625,-0.3814697265625,-0.515625,100573.5,28.418855667114258,114768.0
8.260000228881836,2.4100000858306885,6.510000228881836,-49.5625,2.0,-18.0,6.375,34.6875,6.0625,6.920000076293945,1.8899999856948853,6.679999828338623,0.7623291015625,-0.12542724609375,-0.37225341796875,-0.51434326171875,100573.484375,28.41811752319336,114808.0
7.230000019073486,2.380000114440918,6.599999904632568,-48.5,1.25,-18.0,-0.375,47.9375,13.5625,6.71999979019165,1.850000023841858,6.880000114440918,0.7706298828125,-0.11883544921875,-0.3592529296875,-0.5128173828125,100573.2109375,28.418134689331055,114848.0
6.789999961853027,1.6799999475479126,6.880000114440918,-47.375,1.5625,-20.75,0.625,48.5625,14.375,6.510000228881836,1.7799999713897705,7.099999904632568,0.7799072265625,-0.11102294921875,-0.34600830078125,-0.50958251953125,100572.796875,28.416980743408203,114888.0
6.71999979019165,1.649999976158142,7.039999961853027,-47.375,1.5625,-20.75,2.125,53.3125,14.0625,6.269999980926514,1.7300000190734863,7.329999923706055,0.78997802734375,-0.10186767578125,-0.331787109375,-0.5054931640625,100572.5703125,28.418441772460938,114928.0
5.53000020980835,1.6100000143051147,7.409999847412109,-46.0,2.6875,-22.75,1.4375,58.875,12.0,6.0,1.6799999475479126,7.559999942779541,0.798583984375,-0.0924072265625,-0.31585693359375,-0.50390625,100572.6953125,28.42009925842285,114968.0
6.389999866485596,1.8600000143051147,7.650000095367432,-46.0,1.5625,-25.1875,2.5625,63.125,13.0625,5.699999809265137,1.649999976158142,7.800000190734863,0.808349609375,-0.0816650390625,-0.2984619140625,-0.50079345703125,100571.796875,28.41790008544922,115008.0
5.889999866485596,1.659999966621399,7.650000095367432,-43.6875,3.5,-26.0,0.75,74.1875,15.1875,5.349999904632568,1.6100000143051147,8.050000190734863,0.81805419921875,-0.0703125,-0.2781982421875,-0.4984130859375,100572.21875,28.420856475830078,115048.0
5.090000152587891,1.2999999523162842,7.860000133514404,-42.6875,3.75,-30.0625,3.4375,77.25,12.9375,5.039999961853027,1.5800000429153442,8.25,0.82818603515625,-0.05621337890625,-0.25738525390625,-0.49462890625,100571.546875,28.418458938598633,115088.0
4.670000076293945,1.590000033378601,8.199999809265137,-42.6875,3.75,-30.0625,7.0,79.4375,8.25,4.610000133514404,1.5800000429153442,8.5,0.83648681640625,-0.04107666015625,-0.23553466796875,-0.4930419921875,100571.65625,28.4212703704834,115128.0
3.690000057220459,1.899999976158142,8.300000190734863,-40.75,3.75,-32.0625,3.1875,83.0,5.1875,4.010000228881836,1.600000023841858,8.800000190734863,0.84368896484375,-0.02703857421875,-0.2125244140625,-0.4921875,100571.046875,28.419919967651367,115168.0
3.1700000762939453,1.649999976158142,8.640000343322754,-38.6875,3.5,-34.6875,0.5625,77.5625,5.375,3.5399999618530273,1.590000033378601,9.0,0.85015869140625,-0.01409912109375,-0.1904296875,-0.49066162109375,100570.921875,28.418909072875977,115208.0
2.5399999618530273,1.6699999570846558,8.890000343322754,-35.0,3.75,-36.6875,0.5625,74.25,4.125,3.0799999237060547,1.590000033378601,9.170000076293945,0.85528564453125,-0.002197265625,-0.16943359375,-0.4896240234375,100570.6796875,28.41757583618164,115248.0
2.0999999046325684,1.6100000143051147,9.050000190734863,-34.5625,3.5,-39.5625,-0.125,67.0625,5.5625,2.759999990463257,1.5800000429153442,9.270000457763672,0.85870361328125,0.00567626953125,-0.15521240234375,-0.48834228515625,100570.140625,28.416566848754883,115288.0
2.130000114440918,1.600000023841858,9.0600004196167,-34.5625,3.5,-39.5625,0.6875,64.3125,5.125,2.3499999046325684,1.5700000524520874,9.380000114440918,0.86273193359375,0.01629638671875,-0.13665771484375,-0.486572265625,100570.28125,28.41869354248047,115328.0
1.8700000047683716,1.6399999856948853,9.25,-31.1875,3.5,-41.0625,2.5625,66.375,4.5,1.840000033378601,1.5800000429153442,9.5,0.86749267578125,0.03033447265625,-0.1131591796875,-0.48345947265625,100570.71875,28.421451568603516,115368.0
1.1200000047683716,1.7300000190734863,9.34000015258789,-27.875,4.1875,-42.5625,1.4375,62.6875,5.3125,1.4299999475479126,1.590000033378601,9.5600004196167,0.8704833984375,0.04022216796875,-0.0953369140625,-0.48114013671875,100570.3203125,28.418333053588867,115408.0
0.9300000071525574,1.7400000095367432,9.279999732971191,-25.375,3.5,-43.875,-2.1875,59.0625,5.5625,1.0499999523162842,1.5700000524520874,9.619999885559082,0.87335205078125,0.0484619140625,-0.07781982421875,-0.47845458984375,100570.5234375,28.417142868041992,115448.0
0.5899999737739563,1.5800000429153442,9.550000190734863,-23.5625,3.75,-45.5,-3.625,55.25,8.125,0.7900000214576721,1.5499999523162842,9.649999618530273,0.8753662109375,0.05426025390625,-0.0653076171875,-0.4759521484375,100570.328125,28.41451072692871,115488.0
0.28999999165534973,1.7400000095367432,9.529999732971191,-23.5625,3.75,-45.5,-3.5625,56.4375,8.0625,0.4300000071525574,1.5199999809265137,9.670000076293945,0.87811279296875,0.06195068359375,-0.04815673828125,-0.47198486328125,100570.0625,28.413124084472656,115528.0
-0.17000000178813934,1.6299999952316284,9.449999809265137,-20.5625,4.1875,-46.6875,-7.5625,55.0,10.4375,0.0,1.4700000286102295,9.6899995803833,0.8807373046875,0.0682373046875,-0.03076171875,-0.46771240234375,100570.0,28.413230895996094,115568.0
-0.8100000023841858,1.4299999475479126,9.449999809265137,-18.75,3.75,-47.6875,-10.75,54.5625,12.25,-0.3499999940395355,1.399999976158142,9.6899995803833,0.88330078125,0.07330322265625,-0.0133056640625,-0.46282958984375,100569.7109375,28.412744522094727,115608.0
-1.7100000381469727,1.2300000190734863,9.649999618530273,-16.1875,5.25,-48.0,-13.25,46.5625,12.5625,-0.5799999833106995,1.350000023841858,9.6899995803833,0.8865966796875,0.07672119140625,0.005126953125,-0.45611572265625,100569.921875,28.41294288635254,115648.0
-2.4100000858306885,0.7400000095367432,9.760000228881836,-13.5625,5.25,-48.0,-12.875,32.9375,11.6875,-0.8199999928474426,1.2599999904632568,9.680000305175781,0.88812255859375,0.07745361328125,0.0128173828125,-0.45281982421875,100569.59375,28.41425895690918,115688.0
-2.5199999809265137,0.7300000190734863,9.720000267028809,-13.5625,5.25,-48.0,-7.8125,15.125,6.75,-0.9599999785423279,1.2100000381469727,9.680000305175781,0.88897705078125,0.07733154296875,0.01776123046875,-0.45098876953125,100569.3515625,28.415231704711914,115728.0
-2.0199999809265137,0.8299999833106995,9.649999618530273,-13.5625,5.6875,-48.0625,-4.25,1.0625,1.4375,-1.0,1.1699999570846558,9.680000305175781,0.888671875,0.076171875,0.01824951171875,-0.45184326171875,100569.2734375,28.416547775268555,115768.0
-1.2799999713897705,0.8600000143051147,9.6899995803833,-12.375,5.25,-49.6875,-1.75,-4.6875,-2.625,-0.9700000286102295,1.149999976158142,9.680000305175781,0.887939453125,0.07464599609375,0.01678466796875,-0.45361328125,100568.984375,28.415231704711914,115808.0
-1.100000023841858,0.949999988079071,9.710000038146973,-11.6875,5.25,-50.375,-1.375,-5.0,-2.875,-0.9399999976158142,1.1399999856948853,9.6899995803833,0.8876953125,0.07379150390625,0.015869140625,-0.4542236328125,100569.03125,28.416547775268555,115848.0
-1.1299999952316284,1.1399999856948853,9.649999618530273,-13.1875,6.75,-48.75,-1.1875,-5.375,-1.5,-0.9100000262260437,1.1299999952316284,9.6899995803833,0.88739013671875,0.07257080078125,0.0147705078125,-0.4549560546875,100569.328125,28.41694450378418,115888.0
-0.9800000190734863,1.100000023841858,9.6899995803833,-13.1875,6.75,-48.75,-2.5,-5.5625,-0.9375,-0.8799999952316284,1.1200000047683716,9.699999809265137,0.88739013671875,0.07098388671875,0.013671875,-0.455322265625,100569.140625,28.417827606201172,115928.0
-0.8199999928474426,1.0299999713897705,9.710000038146973,-11.75,6.375,-49.5625,-3.875,-4.4375,-0.625,-0.8500000238418579,1.100000023841858,9.699999809265137,0.88751220703125,0.069091796875,0.01312255859375,-0.45538330078125,100568.765625,28.417919158935547,115968.0
-1.0399999618530273,0.9300000071525574,9.6899995803833,-12.0625,6.75,-49.1875,-5.125,-2.8125,-0.8125,-0.8299999833106995,1.059999942779541,9.710000038146973,0.8875732421875,0.0670166015625,0.01324462890625,-0.45562744140625,100569.015625,28.418567657470703,116008.0
-0.949999988079071,0.7699999809265137,9.710000038146973,-13.1875,6.375,-48.75,-5.6875,-5.0625,-1.0625,-0.8100000023841858,1.0199999809265137,9.710000038146973,0.8873291015625,0.06439208984375,0.01287841796875,-0.4564208984375,100569.1015625,28.418458938598633,116048.0
-0.7599999904632568,0.6499999761581421,9.710000038146973,-12.5,7.0625,-47.6875,-4.0625,-5.0625,-1.5625,-0.7799999713897705,0.9800000190734863,9.720000267028809,0.88726806640625,0.06201171875,0.0123291015625,-0.45697021484375,100568.828125,28.419540405273438,116088.0
-0.8399999737739563,0.7400000095367432,9.75,-12.5,7.0625,-47.6875,-1.3125,-3.6875,-1.25,-0.75,0.949999988079071,9.729999542236328,0.88702392578125,0.06097412109375,0.01177978515625,-0.45745849609375,100568.3125,28.418045043945312,116128.0
-0.7699999809265137,0.8299999833106995,9.720000267028809,-13.5625,7.0625,-48.375,0.375,-4.0,-1.25,-0.7300000190734863,0.949999988079071,9.729999542236328,0.88690185546875,0.06024169921875,0.01068115234375,-0.4578857421875,100568.9921875,28.420387268066406,116168.0
-0.699999988079071,0.8999999761581421,9.739999771118164,-13.5625,6.75,-48.75,0.0625,-5.25,-1.1875,-0.699999988079071,0.949999988079071,9.729999542236328,0.88653564453125,0.0594482421875,0.00921630859375,-0.458740234375,100568.4609375,28.420406341552734,116208.0
-0.5600000023841858,0.9200000166893005,9.720000267028809,-14.0,6.75,-47.5625,-0.625,-4.3125,-0.5625,-0.6700000166893005,0.9399999976158142,9.729999542236328,0.88616943359375,0.05859375,0.00787353515625,-0.4595947265625,100567.96875,28.419269561767578,116248.0
-0.5400000214576721,0.8600000143051147,9.739999771118164,-14.6875,6.75,-47.6875,-0.9375,-2.625,-0.9375,-0.6399999856948853,0.9399999976158142,9.729999542236328,0.88555908203125,0.0577392578125,0.00701904296875,-0.4608154296875,100567.765625,28.41900062561035,116288.0
-0.550000011920929,0.9200000166893005,9.770000457763672,-14.6875,6.75,-47.6875,-0.625,-1.875,-1.375,-0.6299999952316284,0.9300000071525574,9.739999771118164,0.884521484375,0.05712890625,0.00634765625,-0.46295166015625,100567.875,28.41995620727539,116328.0
-0.6100000143051147,0.8399999737739563,9.729999542236328,-15.0,6.375,-48.75,-2.1875,-0.3125,-1.5,-0.6200000047683716,0.9200000166893005,9.739999771118164,0.88433837890625,0.056396484375,0.0064697265625,-0.46337890625,100568.09375,28.420082092285156,116368.0
-0.5,0.8600000143051147,9.6899995803833,-13.875,7.0625,-48.375,-2.0,-0.0625,-1.125,-0.6200000047683716,0.8999999761581421,9.739999771118164,0.88421630859375,0.0556640625,0.0068359375,-0.4637451171875,100568.2421875,28.421920776367188,116408.0
-0.6800000071525574,0.8600000143051147,9.680000305175781,-13.875,6.375,-48.75,-1.0,1.75,0.25,-0.6299999952316284,0.8899999856948853,9.739999771118164,0.88397216796875,0.05535888671875,0.0074462890625,-0.46417236328125,100568.25,28.423290252685547,116448.0
-0.6299999952316284,0.9700000286102295,9.510000228881836,-13.875,6.75,-48.0,-3.4375,1.0625,1.6875,-0.6299999952316284,0.8799999952316284,9.739999771118164,0.8841552734375,0.0546875,0.0081787109375,-0.4638671875,100567.0546875,28.420856475830078,116488.0
-0.699999988079071,0.5799999833106995,9.670000076293945,-13.875,6.75,-48.0,1.6875,1.125,3.4375,-0.6399999856948853,0.8700000047683716,9.739999771118164,0.884521484375,0.0550537109375,0.00830078125,-0.463134765625,100567.3984375,28.421920776367188,116528.0
-0.8199999928474426,0.800000011920929,9.699999809265137,-14.25,7.0625,-48.75,1.0,-0.5,2.9375,-0.6399999856948853,0.8799999952316284,9.739999771118164,0.88494873046875,0.0552978515625,0.0081787109375,-0.4622802734375,100566.9765625,28.422136306762695,116568.0
-0.6800000071525574,0.6299999952316284,9.680000305175781,-13.1875,6.375,-48.75,-3.3125,-0.75,1.875,-0.6299999952316284,0.8700000047683716,9.739999771118164,0.88519287109375,0.054443359375,0.00836181640625,-0.4619140625,100567.125,28.422298431396484,116608.0
-0.7599999904632568,0.7599999904632568,9.789999961853027,-14.25,7.5,-48.375,-3.0625,-1.125,1.0625,-0.6299999952316284,0.8500000238418579,9.739999771118164,0.88543701171875,0.05303955078125,0.00860595703125,-0.46160888671875,100567.3515625,28.423002243041992,116648.0
-0.6299999952316284,0.5899999737739563,9.6899995803833,-14.25,7.5,-48.375,-2.0,-1.4375,0.9375,-0.6200000047683716,0.8299999833106995,9.75,0.8856201171875,0.05224609375,0.0086669921875,-0.46136474609375,100567.1171875,28.42294692993164,116688.0
-0.7300000190734863,0.5699999928474426,9.710000038146973,-13.1875,7.5,-48.375,0.125,-0.625,1.4375,-0.6200000047683716,0.8199999928474426,9.75,0.8856201171875,0.05194091796875,0.0086669921875,-0.46136474609375,100566.9140625,28.422910690307617,116728.0
-0.800000011920929,0.6200000047683716,9.739999771118164,-14.0,7.0625,-47.5625,2.5625,-2.1875,1.0,-0.6100000143051147,0.8199999928474426,9.75,0.88580322265625,0.0521240234375,0.00823974609375,-0.4610595703125,100566.359375,28.421722412109375,116768.0
-1.0199999809265137,0.7300000190734863,9.8100004196167,-14.6875,7.5,-48.0,3.5625,-6.0625,1.875,-0.6000000238418579,0.8299999833106995,9.75,0.88568115234375,0.0526123046875,0.0069580078125,-0.46124267578125,100566.59375,28.4219913482666,116808.0
-0.7099999785423279,1.0399999618530273,9.890000343322754,-14.0,7.0625,-48.0,7.5625,-10.6875,-1.875,-0.550000011920929,0.8799999952316284,9.75,0.88494873046875,0.0533447265625,0.0028076171875,-0.46258544921875,100567.0234375,28.422189712524414,116848.0
-1.0199999809265137,1.0299999713897705,10.109999656677246,-14.0,7.0625,-48.0,14.6875,-14.5625,-8.6875,-0.46000000834465027,0.9599999785423279,9.739999771118164,0.88348388671875,0.05462646484375,-0.00347900390625,-0.46527099609375,100566.7578125,28.422910690307617,116888.0
-0.05000000074505806,1.590000033378601,9.770000457763672,-14.6875,7.0625,-48.375,7.875,-12.25,-2.6875,-0.36000001430511475,1.0299999713897705,9.739999771118164,0.8829345703125,0.05548095703125,-0.0091552734375,-0.46612548828125,100566.828125,28.422317504882812,116928.0
-0.5099999904632568,1.6699999570846558,9.670000076293945,-15.75,7.0625,-48.0,3.25,-10.75,-0.125,-0.30000001192092896,1.059999942779541,9.739999771118164,0.8826904296875,0.054931640625,-0.0128173828125,-0.466552734375,100565.9375,28.4212703704834,116968.0
-0.05000000074505806,1.0,9.670000076293945,-16.5,5.25,-47.6875,-8.125,-13.0,0.4375,-0.20999999344348907,1.0299999713897705,9.739999771118164,0.88165283203125,0.05078125,-0.0157470703125,-0.4688720703125,100565.609375,28.419919967651367,117008.0
0.27000001072883606,0.6299999952316284,9.770000457763672,-16.875,6.75,-48.0,-5.625,-11.3125,0.875,-0.15000000596046448,1.0,9.75,0.88177490234375,0.0472412109375,-0.0181884765625,-0.46893310546875,100565.9921875,28.42064094543457,117048.0
0.3700000047683716,0.8999999761581421,9.680000305175781,-16.875,6.75,-48.0,-4.75,-3.0,4.4375,-0.10000000149011612,0.9599999785423279,9.75,0.88275146484375,0.0450439453125,-0.01824951171875,-0.46728515625,100565.734375,28.4217586517334,117088.0
0.10999999940395355,0.33000001311302185,9.720000267028809,-16.75,7.5,-48.75,-1.4375,4.25,8.4375,-0.10000000149011612,0.9200000166893005,9.760000228881836,0.884033203125,0.04443359375,-0.01690673828125,-0.4649658203125,100564.4375,28.420856475830078,117128.0
-0.6100000143051147,0.9399999976158142,9.829999923706055,-17.5,7.0625,-47.6875,0.6875,5.5625,11.0625,-0.12999999523162842,0.9300000071525574,9.760000228881836,0.8857421875,0.04559326171875,-0.0155029296875,-0.461669921875,100564.3671875,28.420188903808594,117168.0
-0.550000011920929,0.8299999833106995,9.899999618530273,-17.5,7.0625,-48.75,0.125,-0.9375,9.4375,-0.12999999523162842,0.9300000071525574,9.760000228881836,0.886962890625,0.04534912109375,-0.0159912109375,-0.45928955078125,100563.9296875,28.41795539855957,117208.0
-0.3400000035762787,0.8999999761581421,9.800000190734863,-17.1875,7.75,-47.1875,1.375,-2.375,7.25,-0.11999999731779099,0.9300000071525574,9.760000228881836,0.88800048828125,0.04522705078125,-0.01715087890625,-0.45733642578125,100563.53125,28.415700912475586,117248.0
-0.27000001072883606,0.8299999833106995,9.630000114440918,-17.1875,7.75,-47.1875,1.8125,-6.4375,4.0625,-0.09000000357627869,0.9399999976158142,9.760000228881836,0.88824462890625,0.044921875,-0.019287109375,-0.45672607421875,100564.0703125,28.41864013671875,117288.0
0.029999999329447746,1.0499999523162842,9.699999809265137,-16.75,7.0625,-47.5625,4.375,-8.5,0.0,-0.019999999552965164,0.9700000286102295,9.75,0.88812255859375,0.044677734375,-0.0224609375,-0.45684814453125,100564.109375,28.419666290283203,117328.0
0.14000000059604645,1.3899999856948853,9.710000038146973,-16.375,7.75,-47.1875,-2.625,-8.3125,-2.75,0.029999999329447746,0.9599999785423279,9.75,0.8876953125,0.04217529296875,-0.0242919921875,-0.45782470703125,100564.3203125,28.41757583618164,117368.0
0.1599999964237213,0.75,9.819999694824219,-16.0,8.1875,-48.0,-11.0625,-7.5625,-3.375,0.07999999821186066,0.8999999761581421,9.760000228881836,0.887939453125,0.03802490234375,-0.02484130859375,-0.457763671875,100564.28125,28.417142868041992,117408.0
0.17000000178813934,0.6100000143051147,9.770000457763672,-17.5,7.5,-47.6875,-5.9375,-6.125,-3.875,0.10999999940395355,0.8600000143051147,9.760000228881836,0.8873291015625,0.03546142578125,-0.02569580078125,-0.4591064453125,100563.2890625,28.415088653564453,117448.0
0.09000000357627869,0.8600000143051147,9.770000457763672,-17.5,7.5,-47.6875,-4.6875,-4.5,-3.9375,0.14000000059604645,0.8299999833106995,9.770000457763672,0.88671875,0.0330810546875,-0.0262451171875,-0.4603271484375,100563.171875,28.416440963745117,117488.0
0.12999999523162842,0.7300000190734863,9.9399995803833,-16.75,7.5,-47.6875,-10.25,-6.625,-2.75,0.17000000178813934,0.7799999713897705,9.770000457763672,0.88641357421875,0.029052734375,-0.02642822265625,-0.46124267578125,100563.4453125,28.417449951171875,117528.0
0.4699999988079071,0.07999999821186066,9.75,-17.5,7.5,-47.1875,-7.875,-0.3125,1.9375,0.20000000298023224,0.7099999785423279,9.770000457763672,0.8868408203125,0.0274658203125,-0.02532958984375,-0.4605712890625,100563.3125,28.4158992767334,117568.0
-0.5600000023841858,0.36000001430511475,9.710000038146973,-17.875,8.1875,-47.1875,8.8125,2.5625,4.5625,0.18000000715255737,0.7200000286102295,9.770000457763672,0.8873291015625,0.030517578125,-0.0267333984375,-0.45928955078125,100563.4296875,28.41532325744629,117608.0
-0.11999999731779099,1.440000057220459,9.640000343322754,-18.5625,8.1875,-46.75,11.5,-9.5,-0.0625,0.20999999344348907,0.8100000023841858,9.770000457763672,0.88690185546875,0.03192138671875,-0.0311279296875,-0.4598388671875,100563.78125,28.416603088378906,117648.0
0.6100000143051147,1.5099999904632568,9.569999694824219,-18.5625,8.1875,-46.75,-1.375,-9.875,-1.375,0.2800000011920929,0.8299999833106995,9.760000228881836,0.88671875,0.02984619140625,-0.03338623046875,-0.46014404296875,100563.453125,28.415267944335938,117688.0
0.550000011920929,0.47999998927116394,9.869999885559082,-17.875,8.5625,-47.1875,-6.1875,-3.4375,-1.4375,0.3199999928474426,0.7900000214576721,9.760000228881836,0.88641357421875,0.02764892578125,-0.03363037109375,-0.4608154296875,100564.0625,28.41600799560547,117728.0
0.4300000071525574,0.47999998927116394,9.75,-18.1875,7.75,-45.6875,1.0625,-1.5,-1.1875,0.33000001311302185,0.7799999713897705,9.760000228881836,0.88629150390625,0.028076171875,-0.03424072265625,-0.4610595703125,100563.7578125,28.41250991821289,117768.0
0.38999998569488525,0.800000011920929,9.760000228881836,-17.875,8.1875,-46.0,4.4375,-1.375,-0.0625,0.3400000035762787,0.8100000023841858,9.760000228881836,0.88629150390625,0.029052734375,-0.03533935546875,-0.4609375,100563.7578125,28.412763595581055,117808.0
0.44999998807907104,0.8299999833106995,9.770000457763672,-18.25,9.0,-46.375,3.5625,-0.6875,0.75,0.3499999940395355,0.8299999833106995,9.760000228881836,0.88629150390625,0.030029296875,-0.03607177734375,-0.46075439453125,100563.6171875,28.41584587097168,117848.0
0.3799999952316284,0.949999988079071,9.859999656677246,-18.25,9.0,-46.375,2.4375,-0.1875,-0.625,0.3499999940395355,0.8500000238418579,9.760000228881836,0.8861083984375,0.03057861328125,-0.03643798828125,-0.46099853515625,100563.3125,28.417016983032227,117888.0
0.4000000059604645,1.0299999713897705,9.8100004196167,-19.0625,7.5,-47.25,-1.1875,-1.6875,-2.3125,0.36000001430511475,0.8600000143051147,9.760000228881836,0.8857421875,0.02984619140625,-0.03662109375,-0.46173095703125,100563.375,28.418458938598633,117928.0
0.5799999833106995,0.7200000286102295,9.699999809265137,-19.5,7.5,-47.1875,-6.4375,-0.8125,-1.625,0.3700000047683716,0.8199999928474426,9.760000228881836,0.88555908203125,0.02783203125,-0.0357666015625,-0.4622802734375,100563.5859375,28.42011833190918,117968.0
0.5199999809265137,0.4099999964237213,9.6899995803833,-18.1875,7.5,-46.5,-5.125,2.5625,-0.3125,0.36000001430511475,0.7799999713897705,9.760000228881836,0.88568115234375,0.02691650390625,-0.0341796875,-0.4622802734375,100563.8671875,28.42078399658203,118008.0
0.2800000011920929,0.33000001311302185,9.720000267028809,-19.6875,7.75,-46.75,0.0,4.3125,0.6875,0.33000001311302185,0.7599999904632568,9.770000457763672,0.8858642578125,0.027099609375,-0.03265380859375,-0.4620361328125,100563.0625,28.420711517333984,118048.0
0.07999999821186066,0.5600000023841858,9.720000267028809,-19.6875,7.75,-46.75,6.5,3.125,0.5625,0.30000001192092896,0.7699999809265137,9.770000457763672,0.8858642578125,0.02935791015625,-0.032470703125,-0.4619140625,100562.9453125,28.423542022705078,118088.0
0.05999999865889549,0.9700000286102295,9.779999732971191,-19.0,8.1875,-47.1875,9.5,0.5,-0.3125,0.28999999165534973,0.8299999833106995,9.760000228881836,0.88568115234375,0.03216552734375,-0.03387451171875,-0.4619140625,100563.1875,28.42565155029297,118128.0
0.14000000059604645,1.1699999570846558,9.829999923706055,-18.5625,7.75,-46.0,7.75,-2.3125,-1.375,0.30000001192092896,0.8899999856948853,9.760000228881836,0.88531494140625,0.03399658203125,-0.0357666015625,-0.46234130859375,100563.015625,28.426101684570312,118168.0
0.3400000035762787,1.2599999904632568,9.720000267028809,-18.5625,7.5,-47.1875,3.875,-3.625,-3.125,0.3199999928474426,0.9300000071525574,9.75,0.88470458984375,0.0350341796875,-0.03759765625,-0.46331787109375,100562.6328125,28.42527198791504,118208.0
0.38999998569488525,1.059999942779541,9.729999542236328,-18.5625,7.5,-47.6875,-1.3125,-2.9375,-3.9375,0.3400000035762787,0.949999988079071,9.75,0.884033203125,0.0343017578125,-0.03826904296875,-0.464599609375,100562.78125,28.425813674926758,118248.0
0.4399999976158142,0.8199999928474426,9.75,-18.5625,7.5,-47.6875,-1.625,-2.0625,-4.4375,0.3499999940395355,0.9300000071525574,9.75,0.88336181640625,0.03363037109375,-0.03857421875,-0.4659423828125,100563.0234375,28.427364349365234,118288.0
0.3499999940395355,0.8299999833106995,9.6899995803833,-19.375,7.0625,-47.1875,0.1875,-1.0,-3.125,0.36000001430511475,0.9300000071525574,9.75,0.88287353515625,0.03350830078125,-0.03887939453125,-0.46673583984375,100563.640625,28.427940368652344,118328.0
0.3199999928474426,0.8100000023841858,9.710000038146973,-17.875,6.75,-46.0,1.3125,-1.0,-1.25,0.36000001430511475,0.9300000071525574,9.75,0.8826904296875,0.03369140625,-0.039306640625,-0.46710205078125,100563.984375,28.42954444885254,118368.0
0.3700000047683716,0.8700000047683716,9.75,-18.5625,7.5,-48.375,2.25,-1.0625,-0.6875,0.3700000047683716,0.949999988079071,9.75,0.88250732421875,0.0341796875,-0.0399169921875,-0.46734619140625,100564.21875,28.429580688476562,118408.0
0.3199999928474426,0.8799999952316284,9.75,-19.6875,7.5,-46.75,2.8125,-1.125,-1.5625,0.3799999952316284,0.9599999785423279,9.75,0.8822021484375,0.034912109375,-0.04071044921875,-0.46783447265625,100564.4375,28.430194854736328,118448.0
