Accel_X,Accel_Y,Accel_Z,Magneto_X,Magneto_Y,Magneto_Z,Gyro_X,Gyro_Y,Gyro_Z,Gravity_X,Gravity_Y,Gravity_Z,Quaternion_W,Quaternion_X,Quaternion_Y,Quaternion_Z,Pressure,Temperature,Time
0.46000000834465027,0.3100000023841858,9.800000190734863,-13.1875,12.75,-47.0,-0.5,-0.1875,1.125,0.4000000059604645,0.20999999344348907,9.789999961853027,0.97259521484375,0.00579833984375,-0.02239990234375,-0.2314453125,83064.8515625,23.358642578125,42018.0
0.4000000059604645,0.2199999988079071,9.800000190734863,-13.5,13.0625,-47.375,-1.375,0.3125,1.5,0.4000000059604645,0.20000000298023224,9.789999961853027,0.97265625,0.00537109375,-0.02227783203125,-0.23101806640625,100574.609375,25.0140438079834,42058.0
0.3499999940395355,0.17000000178813934,9.819999694824219,-13.875,12.0625,-48.0625,-1.625,0.4375,1.375,0.4000000059604645,0.1899999976158142,9.789999961853027,0.9727783203125,0.00482177734375,-0.0220947265625,-0.2305908203125,100574.0546875,25.035396575927734,42098.0
0.36000001430511475,0.07000000029802322,9.789999961853027,-13.875,12.375,-46.1875,-1.4375,-0.3125,0.25,0.4000000059604645,0.18000000715255737,9.789999961853027,0.9727783203125,0.00439453125,-0.02203369140625,-0.23052978515625,100572.5,25.066993713378906,42138.0
0.47999998927116394,0.12999999523162842,9.8100004196167,-13.875,12.375,-46.1875,-0.625,-0.6875,-1.0625,0.4000000059604645,0.18000000715255737,9.789999961853027,0.97271728515625,0.00421142578125,-0.0220947265625,-0.23089599609375,100570.9453125,25.102811813354492,42178.0
0.44999998807907104,0.15000000596046448,9.779999732971191,-13.5,12.0625,-47.375,0.25,0.125,-0.3125,0.4000000059604645,0.18000000715255737,9.789999961853027,0.97271728515625,0.00421142578125,-0.0220947265625,-0.23095703125,100569.5,25.137744903564453,42218.0
0.4099999964237213,0.20000000298023224,9.819999694824219,-13.5,13.0625,-47.0,-0.1875,0.375,0.5,0.4000000059604645,0.18000000715255737,9.789999961853027,0.97271728515625,0.00421142578125,-0.0220947265625,-0.23089599609375,100567.6796875,25.169143676757812,42258.0
0.4000000059604645,0.20999999344348907,9.819999694824219,-13.875,12.75,-47.375,-0.8125,-0.125,0.6875,0.4000000059604645,0.17000000178813934,9.789999961853027,0.9727783203125,0.00396728515625,-0.02203369140625,-0.23065185546875,100567.03125,25.200199127197266,42298.0
0.4000000059604645,0.12999999523162842,9.800000190734863,-14.25,13.0625,-46.5625,-0.75,-0.4375,1.0,0.4000000059604645,0.17000000178813934,9.789999961853027,0.97283935546875,0.00372314453125,-0.02197265625,-0.2303466796875,100566.125,25.227521896362305,42338.0
0.4300000071525574,0.18000000715255737,9.760000228881836,-14.25,13.0625,-46.5625,-0.8125,0.1875,0.8125,0.4000000059604645,0.1599999964237213,9.789999961853027,0.972900390625,0.00341796875,-0.02191162109375,-0.2301025390625,100565.9375,25.25206756591797,42378.0
0.4300000071525574,0.15000000596046448,9.779999732971191,-13.875,13.875,-46.5625,-1.8125,0.125,0.1875,0.4000000059604645,0.15000000596046448,9.789999961853027,0.972900390625,0.0028076171875,-0.02178955078125,-0.2301025390625,100565.421875,25.273347854614258,42418.0
0.4099999964237213,0.029999999329447746,9.800000190734863,-12.75,13.0625,-47.375,-1.625,0.5,-0.25,0.4000000059604645,0.14000000059604645,9.789999961853027,0.972900390625,0.0023193359375,-0.0216064453125,-0.2301025390625,100564.609375,25.289325714111328,42458.0
0.36000001430511475,0.009999999776482582,9.789999961853027,-13.875,13.0625,-47.0,-1.125,0.125,-0.1875,0.4000000059604645,0.12999999523162842,9.789999961853027,0.972900390625,0.001953125,-0.02154541015625,-0.2301025390625,100564.3359375,25.305339813232422,42498.0
0.4099999964237213,0.05000000074505806,9.8100004196167,-13.875,13.5,-47.375,-0.375,-0.1875,0.1875,0.4000000059604645,0.12999999523162842,9.789999961853027,0.972900390625,0.001953125,-0.02154541015625,-0.2301025390625,100563.6640625,25.316774368286133,42538.0
0.44999998807907104,0.07999999821186066,9.800000190734863,-13.875,13.5,-47.375,0.25,-0.0625,0.625,0.4000000059604645,0.12999999523162842,9.789999961853027,0.97296142578125,0.001953125,-0.02154541015625,-0.22998046875,100563.6171875,25.327648162841797,42578.0
0.38999998569488525,0.09000000357627869,9.819999694824219,-14.25,13.875,-48.0625,0.25,0.375,0.8125,0.4000000059604645,0.12999999523162842,9.789999961853027,0.9730224609375,0.001953125,-0.02154541015625,-0.2296142578125,100564.015625,25.335241317749023,42618.0
0.4300000071525574,0.10999999940395355,9.789999961853027,-14.25,14.25,-47.75,-0.5625,-0.0625,0.8125,0.4000000059604645,0.12999999523162842,9.789999961853027,0.97308349609375,0.0018310546875,-0.021484375,-0.2293701171875,100563.6015625,25.34034538269043,42658.0
0.4099999964237213,0.07999999821186066,9.8100004196167,-14.25,12.75,-47.75,-0.4375,0.3125,1.0,0.4000000059604645,0.12999999523162842,9.789999961853027,0.97314453125,0.0018310546875,-0.021484375,-0.22906494140625,100563.0703125,25.344762802124023,42698.0
0.4300000071525574,0.07000000029802322,9.8100004196167,-15.0,13.0625,-48.0625,-0.375,0.375,0.5,0.4000000059604645,0.12999999523162842,9.789999961853027,0.97314453125,0.0018310546875,-0.021484375,-0.22906494140625,100563.5859375,25.352102279663086,42738.0
0.4099999964237213,0.019999999552965164,9.8100004196167,-15.0,13.0625,-48.0625,-0.3125,0.5625,0.5625,0.4000000059604645,0.12999999523162842,9.789999961853027,0.97314453125,0.0018310546875,-0.02142333984375,-0.22906494140625,100563.5859375,25.357622146606445,42778.0
0.38999998569488525,-0.07000000029802322,9.8100004196167,-13.5,13.5,-48.0625,-0.5,0.4375,0.4375,0.4000000059604645,0.12999999523162842,9.789999961853027,0.97314453125,0.001708984375,-0.02142333984375,-0.22906494140625,100563.1015625,25.36463737487793,42818.0
0.47999998927116394,-0.07000000029802322,9.789999961853027,-13.1875,13.0625,-46.1875,1.25,0.125,0.0625,0.4000000059604645,0.11999999731779099,9.789999961853027,0.97314453125,0.00201416015625,-0.021484375,-0.22906494140625,100563.171875,25.36817169189453,42858.0
0.4000000059604645,0.05000000074505806,9.8100004196167,-13.5,14.25,-48.5,3.125,1.25,0.3125,0.38999998569488525,0.14000000059604645,9.789999961853027,0.97320556640625,0.0030517578125,-0.02130126953125,-0.22906494140625,100563.5078125,25.371976852416992,42898.0
0.3400000035762787,0.11999999731779099,9.789999961853027,-13.5,12.75,-47.0,3.125,1.4375,0.0,0.3799999952316284,0.1599999964237213,9.789999961853027,0.97320556640625,0.004150390625,-0.0211181640625,-0.22900390625,100563.7578125,25.377134323120117,42938.0
0.3499999940395355,0.10999999940395355,9.84000015258789,-13.5,12.75,-47.0,2.6875,0.6875,-0.1875,0.3799999952316284,0.18000000715255737,9.789999961853027,0.97320556640625,0.005126953125,-0.02117919921875,-0.22900390625,100562.96875,25.38099479675293,42978.0
0.38999998569488525,0.23999999463558197,9.8100004196167,-13.875,13.5,-46.1875,3.0,0.875,-0.1875,0.3700000047683716,0.20000000298023224,9.789999961853027,0.97320556640625,0.00616455078125,-0.0211181640625,-0.22900390625,100563.4765625,25.38562774658203,43018.0
0.25999999046325684,0.3199999928474426,9.829999923706055,-14.25,12.75,-46.5625,2.5625,2.0,0.25,0.36000001430511475,0.2199999988079071,9.789999961853027,0.97320556640625,0.00714111328125,-0.02069091796875,-0.22894287109375,100563.6875,25.387954711914062,43058.0
0.33000001311302185,0.27000001072883606,9.84000015258789,-13.5,12.75,-47.0,0.9375,1.1875,0.5625,0.3499999940395355,0.23000000417232513,9.789999961853027,0.97320556640625,0.007568359375,-0.02032470703125,-0.228759765625,100563.5703125,25.38970375061035,43098.0
0.25999999046325684,0.25,9.819999694824219,-13.1875,12.75,-47.0,0.5625,0.9375,0.875,0.3499999940395355,0.23000000417232513,9.789999961853027,0.97332763671875,0.0076904296875,-0.01995849609375,-0.22845458984375,100563.640625,25.39215660095215,43138.0
0.20000000298023224,0.11999999731779099,9.819999694824219,-13.1875,12.75,-47.0,0.125,0.1875,0.875,0.3400000035762787,0.23000000417232513,9.789999961853027,0.973388671875,0.00762939453125,-0.01983642578125,-0.22821044921875,100563.984375,25.3957462310791,43178.0
0.25999999046325684,0.0,9.800000190734863,-13.1875,12.75,-48.5625,1.0625,-0.9375,-0.0625,0.3400000035762787,0.23000000417232513,9.789999961853027,0.97332763671875,0.0076904296875,-0.02001953125,-0.2283935546875,100563.7421875,25.396106719970703,43218.0
0.28999999165534973,-0.03999999910593033,9.75,-12.75,12.75,-47.0,3.875,-1.5625,-2.375,0.3499999940395355,0.23999999463558197,9.789999961853027,0.97314453125,0.00836181640625,-0.0206298828125,-0.22918701171875,100564.0859375,25.39870262145996,43258.0
0.3700000047683716,-0.10000000149011612,9.770000457763672,-13.1875,12.375,-46.5625,6.875,-1.625,-4.125,0.36000001430511475,0.25999999046325684,9.789999961853027,0.9727783203125,0.0096435546875,-0.021484375,-0.23052978515625,100564.78125,25.40121078491211,43298.0
0.36000001430511475,-0.20000000298023224,9.770000457763672,-13.875,12.0625,-47.0,10.9375,-1.8125,-5.0625,0.3700000047683716,0.30000001192092896,9.789999961853027,0.97235107421875,0.0115966796875,-0.02264404296875,-0.23211669921875,100564.3671875,25.4013729095459,43338.0
0.49000000953674316,-0.23000000417232513,9.710000038146973,-13.875,12.0625,-47.0,17.8125,-1.625,-5.125,0.3799999952316284,0.3499999940395355,9.789999961853027,0.97186279296875,0.015380859375,-0.02435302734375,-0.233642578125,100564.4453125,25.40438461303711,43378.0
0.4699999988079071,-0.009999999776482582,9.720000267028809,-13.1875,13.0625,-46.5625,23.1875,-0.1875,-4.75,0.38999998569488525,0.46000000834465027,9.779999732971191,0.97137451171875,0.02166748046875,-0.026123046875,-0.23504638671875,100564.4375,25.4049072265625,43418.0
0.5400000214576721,0.23999999463558197,9.680000305175781,-13.5,12.75,-47.375,28.3125,0.1875,-4.5625,0.38999998569488525,0.6100000143051147,9.770000457763672,0.9708251953125,0.0299072265625,-0.02813720703125,-0.23626708984375,100564.4609375,25.40586280822754,43458.0
0.36000001430511475,0.4300000071525574,9.6899995803833,-13.875,10.5625,-46.875,32.5,0.8125,-5.0,0.38999998569488525,0.7900000214576721,9.760000228881836,0.97003173828125,0.040283203125,-0.03045654296875,-0.23760986328125,100565.125,25.409486770629883,43498.0
0.4300000071525574,0.6600000262260437,9.600000381469727,-13.875,10.5625,-46.875,35.3125,1.1875,-5.6875,0.3799999952316284,1.0199999809265137,9.739999771118164,0.96905517578125,0.05194091796875,-0.03277587890625,-0.23907470703125,100564.8671875,25.409883499145508,43538.0
0.44999998807907104,0.8299999833106995,9.550000190734863,-14.25,9.75,-48.0,39.8125,2.25,-6.25,0.3700000047683716,1.2599999904632568,9.710000038146973,0.96783447265625,0.06463623046875,-0.0350341796875,-0.24066162109375,100564.875,25.4124813079834,43578.0
0.28999999165534973,1.090000033378601,9.470000267028809,-14.5625,9.0625,-48.375,44.125,2.5625,-6.5625,0.3400000035762787,1.5299999713897705,9.670000076293945,0.96624755859375,0.07928466796875,-0.03759765625,-0.2421875,100564.8203125,25.413291931152344,43618.0
0.3199999928474426,1.5399999618530273,9.390000343322754,-14.5,5.875,-48.25,45.875,2.9375,-6.375,0.3199999928474426,1.8300000429153442,9.619999885559082,0.96441650390625,0.09466552734375,-0.04022216796875,-0.24359130859375,100565.3828125,25.414464950561523,43658.0
0.3400000035762787,2.119999885559082,9.359999656677246,-13.5,4.875,-48.375,47.1875,3.875,-5.9375,0.28999999165534973,2.130000114440918,9.5600004196167,0.96234130859375,0.1103515625,-0.0426025390625,-0.2447509765625,100565.4921875,25.415925979614258,43698.0
0.1899999976158142,2.549999952316284,9.289999961853027,-13.5,4.875,-48.375,45.375,2.8125,-5.75,0.25999999046325684,2.430000066757202,9.489999771118164,0.9600830078125,0.12530517578125,-0.04510498046875,-0.245849609375,100565.6015625,25.41702651977539,43738.0
0.20000000298023224,3.0199999809265137,9.239999771118164,-14.1875,2.25,-49.375,42.375,3.5625,-5.1875,0.2199999988079071,2.7100000381469727,9.420000076293945,0.9578857421875,0.1392822265625,-0.0472412109375,-0.24664306640625,100565.2578125,25.417278289794922,43778.0
0.10999999940395355,3.190000057220459,9.15999984741211,-13.875,1.25,-49.375,39.5625,3.25,-3.375,0.1899999976158142,2.9700000286102295,9.34000015258789,0.9556884765625,0.15240478515625,-0.0491943359375,-0.2469482421875,100565.2109375,25.41803550720215,43818.0
0.18000000715255737,3.3499999046325684,9.079999923706055,-15.0,-0.375,-50.0625,38.9375,4.25,-2.5,0.1599999964237213,3.2100000381469727,9.260000228881836,0.9534912109375,0.16552734375,-0.05096435546875,-0.24676513671875,100565.640625,25.419172286987305,43858.0
0.0,3.130000114440918,8.970000267028809,-13.5,-1.875,-48.6875,40.875,4.0625,-1.375,0.12999999523162842,3.4600000381469727,9.170000076293945,0.9510498046875,0.1793212890625,-0.05322265625,-0.24603271484375,100565.9140625,25.421192169189453,43898.0
0.07000000029802322,3.4800000190734863,8.789999961853027,-13.5,-1.875,-48.6875,47.3125,3.1875,-0.25,0.11999999731779099,3.6700000762939453,9.09000015258789,0.94805908203125,0.195068359375,-0.05621337890625,-0.244873046875,100565.796875,25.422706604003906,43938.0
0.05999999865889549,3.609999895095825,8.5600004196167,-14.25,-3.5,-48.6875,51.5,2.5625,0.3125,0.10000000149011612,4.050000190734863,8.930000305175781,0.944580078125,0.211669921875,-0.05963134765625,-0.24371337890625,100565.96875,25.424997329711914,43978.0
0.10999999940395355,4.139999866485596,8.350000381469727,-13.875,-5.25,-48.1875,56.9375,3.25,-0.25,0.07999999821186066,4.369999885559082,8.770000457763672,0.9404296875,0.22991943359375,-0.06317138671875,-0.24237060546875,100566.2734375,25.424978256225586,44018.0
0.03999999910593033,4.730000019073486,8.210000038146973,-15.375,-7.5,-48.5,54.8125,3.6875,-2.0625,0.05000000074505806,4.699999809265137,8.600000381469727,0.9359130859375,0.24761962890625,-0.06622314453125,-0.2415771484375,100566.53125,25.426115036010742,44058.0
-0.09000000357627869,5.019999980926514,8.069999694824219,-14.25,-9.6875,-48.0,53.9375,3.6875,-3.5625,0.029999999329447746,4.929999828338623,8.470000267028809,0.9310302734375,0.264892578125,-0.0693359375,-0.2413330078125,100566.59375,25.42698097229004,44098.0
-0.12999999523162842,5.360000133514404,7.889999866485596,-14.25,-9.6875,-48.0,53.5625,2.4375,-4.1875,0.0,5.239999771118164,8.279999732971191,0.92578125,0.28192138671875,-0.0726318359375,-0.2412109375,100566.484375,25.42936134338379,44138.0
-0.10999999940395355,5.739999771118164,7.71999979019165,-14.5625,-11.75,-47.5625,51.5,1.4375,-4.1875,-0.019999999552965164,5.599999904632568,8.039999961853027,0.9205322265625,0.2979736328125,-0.07598876953125,-0.24102783203125,100566.390625,25.432283401489258,44178.0
-0.019999999552965164,6.329999923706055,7.449999809265137,-14.25,-13.5,-47.5625,47.3125,1.5,-3.5625,-0.03999999910593033,5.860000133514404,7.860000133514404,0.91571044921875,0.31207275390625,-0.07867431640625,-0.24066162109375,100566.109375,25.432174682617188,44218.0
-0.2199999988079071,6.699999809265137,7.420000076293945,-13.875,-15.1875,-46.875,39.1875,2.5625,-1.9375,-0.07000000029802322,6.070000171661377,7.690000057220459,0.91180419921875,0.32330322265625,-0.08074951171875,-0.2398681640625,100566.546875,25.434410095214844,44258.0
-0.28999999165534973,6.449999809265137,7.309999942779541,-14.0,-16.0625,-46.375,31.125,1.0,-0.8125,-0.07999999821186066,6.199999809265137,7.590000152587891,0.90911865234375,0.33074951171875,-0.08233642578125,-0.23931884765625,100566.9453125,25.43549346923828,44298.0
-0.20999999344348907,6.179999828338623,7.130000114440918,-14.0,-16.0625,-46.375,28.9375,-1.0625,-0.375,-0.07999999821186066,6.349999904632568,7.460000038146973,0.90576171875,0.33978271484375,-0.08502197265625,-0.2386474609375,100567.4921875,25.438053131103516,44338.0
-0.03999999910593033,6.25,7.010000228881836,-14.6875,-17.5,-45.6875,30.8125,-2.25,-1.75,-0.07000000029802322,6.539999961853027,7.289999961853027,0.90093994140625,0.3514404296875,-0.088623046875,-0.2386474609375,100567.46875,25.439388275146484,44378.0
0.07000000029802322,6.099999904632568,6.800000190734863,-14.0,-18.875,-44.75,32.4375,-1.75,-2.0625,-0.07000000029802322,6.699999809265137,7.150000095367432,0.8968505859375,0.3614501953125,-0.091552734375,-0.23797607421875,100567.0703125,25.43751335144043,44418.0
0.0,6.190000057220459,6.619999885559082,-14.0,-20.25,-43.875,36.75,1.875,0.875,-0.07000000029802322,6.820000171661377,7.03000020980835,0.89239501953125,0.3729248046875,-0.09417724609375,-0.23590087890625,100567.0859375,25.43781852722168,44458.0
-0.07999999821186066,6.420000076293945,6.349999904632568,-15.0625,-21.375,-43.1875,40.1875,2.0625,3.4375,-0.07000000029802322,7.0,6.849999904632568,0.8887939453125,0.38214111328125,-0.09649658203125,-0.23388671875,100566.859375,25.436918258666992,44498.0
-0.05999999865889549,6.619999885559082,6.099999904632568,-15.0625,-21.375,-43.1875,44.625,1.4375,4.0,-0.05999999865889549,7.199999809265137,6.650000095367432,0.88323974609375,0.39569091796875,-0.10003662109375,-0.23095703125,100567.171875,25.439117431640625,44538.0
-0.07999999821186066,7.53000020980835,6.03000020980835,-15.5,-22.875,-43.5,50.125,2.6875,3.75,-0.05000000074505806,7.409999847412109,6.409999847412109,0.8768310546875,0.41064453125,-0.10357666015625,-0.227783203125,100567.1796875,25.441335678100586,44578.0
-0.12999999523162842,8.600000381469727,5.75,-14.6875,-24.1875,-42.6875,45.625,2.6875,2.8125,-0.05000000074505806,7.619999885559082,6.159999847412109,0.8697509765625,0.42633056640625,-0.107177734375,-0.2242431640625,100566.6953125,25.441858291625977,44618.0
-0.20000000298023224,8.529999732971191,5.670000076293945,-15.875,-24.5,-41.5,33.625,1.875,3.75,-0.03999999910593033,7.769999980926514,5.96999979019165,0.86651611328125,0.433349609375,-0.10906982421875,-0.22235107421875,100567.1484375,25.44512367248535,44658.0
-0.12999999523162842,8.220000267028809,5.480000019073486,-16.5625,-25.75,-40.875,28.3125,1.0625,3.9375,-0.019999999552965164,7.900000095367432,5.800000190734863,0.862548828125,0.4417724609375,-0.11151123046875,-0.2200927734375,100567.7265625,25.44873046875,44698.0
-0.07000000029802322,8.199999809265137,5.349999904632568,-16.5625,-25.75,-40.875,25.375,-0.125,3.4375,-0.009999999776482582,8.0,5.650000095367432,0.858642578125,0.4495849609375,-0.11383056640625,-0.21820068359375,100567.6484375,25.44681739807129,44738.0
-0.12999999523162842,8.600000381469727,5.46999979019165,-15.25,-26.5,-40.75,23.0,-0.25,2.375,0.0,8.100000381469727,5.510000228881836,0.855224609375,0.456298828125,-0.1158447265625,-0.21661376953125,100568.1171875,25.446548461914062,44778.0
-0.10999999940395355,8.789999961853027,5.190000057220459,-16.6875,-27.75,-39.375,15.625,-0.8125,2.375,0.009999999776482582,8.170000076293945,5.409999847412109,0.8531494140625,0.4603271484375,-0.11749267578125,-0.215576171875,100568.59375,25.44575309753418,44818.0
0.009999999776482582,8.399999618530273,5.139999866485596,-18.1875,-28.0625,-39.75,8.4375,-1.6875,1.0625,0.019999999552965164,8.210000038146973,5.349999904632568,0.8515625,0.4630126953125,-0.11865234375,-0.2152099609375,100568.625,25.444599151611328,44858.0
0.0,8.119999885559082,5.059999942779541,-18.0,-28.0,-38.5,6.1875,-1.375,-0.875,0.019999999552965164,8.239999771118164,5.300000190734863,0.85040283203125,0.46490478515625,-0.119384765625,-0.2154541015625,100568.3046875,25.44602394104004,44898.0
-0.11999999731779099,8.1899995803833,5.039999961853027,-18.0,-28.0,-38.5,6.5625,-1.4375,-2.0,0.019999999552965164,8.270000457763672,5.260000228881836,0.84912109375,0.466796875,-0.1199951171875,-0.216064453125,100568.6796875,25.447683334350586,44938.0
0.05000000074505806,8.029999732971191,5.0,-17.5625,-28.375,-38.0,5.375,-2.3125,-1.9375,0.009999999776482582,8.289999961853027,5.230000019073486,0.8480224609375,0.46832275390625,-0.1207275390625,-0.21673583984375,100568.7421875,25.448909759521484,44978.0
-0.05000000074505806,8.449999809265137,5.019999980926514,-18.25,-28.5,-39.1875,6.0,-1.375,-1.3125,0.009999999776482582,8.3100004196167,5.199999809265137,0.84698486328125,0.46978759765625,-0.121337890625,-0.21710205078125,100568.8671875,25.449848175048828,45018.0
0.009999999776482582,8.449999809265137,4.949999809265137,-18.25,-28.6875,-37.5,0.6875,-0.9375,-0.75,0.009999999776482582,8.319999694824219,5.179999828338623,0.84686279296875,0.46990966796875,-0.12152099609375,-0.21734619140625,100569.09375,25.4499568939209,45058.0
-0.03999999910593033,8.300000190734863,4.96999979019165,-17.5625,-28.6875,-38.25,-2.0625,-0.75,0.0,0.009999999776482582,8.319999694824219,5.179999828338623,0.8470458984375,0.46942138671875,-0.12152099609375,-0.21759033203125,100568.5546875,25.44889259338379,45098.0
0.09000000357627869,8.390000343322754,5.019999980926514,-17.5625,-28.6875,-38.25,-2.8125,-1.5625,0.75,0.009999999776482582,8.3100004196167,5.199999809265137,0.847412109375,0.4686279296875,-0.1219482421875,-0.2176513671875,100568.546875,25.44925308227539,45138.0
0.009999999776482582,8.859999656677246,5.050000190734863,-17.1875,-28.6875,-37.0625,-6.125,-0.625,1.8125,0.029999999329447746,8.300000190734863,5.21999979019165,0.8486328125,0.466552734375,-0.12188720703125,-0.217529296875,100568.25,25.45125389099121,45178.0
0.14000000059604645,9.199999809265137,5.0,-18.0,-28.375,-37.875,-15.5,-0.375,2.5625,0.03999999910593033,8.260000228881836,5.28000020980835,0.8515625,0.46148681640625,-0.12109375,-0.21734619140625,100568.234375,25.452173233032227,45218.0
-0.029999999329447746,8.899999618530273,5.139999866485596,-18.0,-28.0,-38.25,-26.625,0.4375,4.6875,0.05999999865889549,8.180000305175781,5.400000095367432,0.855224609375,0.455078125,-0.12005615234375,-0.21697998046875,100568.4375,25.45285987854004,45258.0
0.23000000417232513,8.680000305175781,5.230000019073486,-17.1875,-28.0,-38.6875,-39.375,1.625,3.125,0.07999999821186066,8.09000015258789,5.539999961853027,0.8607177734375,0.445068359375,-0.1177978515625,-0.2171630859375,100568.5,25.45338249206543,45298.0
0.1599999964237213,7.739999771118164,5.380000114440918,-17.1875,-28.0,-38.6875,-38.5,2.6875,3.5625,0.09000000357627869,7.929999828338623,5.75,0.86700439453125,0.43359375,-0.1146240234375,-0.21722412109375,100568.6015625,25.453779220581055,45338.0
0.12999999523162842,8.319999694824219,5.570000171661377,-18.0,-26.5,-38.6875,-44.3125,3.5625,4.5,0.10000000149011612,7.78000020980835,5.960000038146973,0.8734130859375,0.421630859375,-0.1112060546875,-0.21685791015625,100568.71875,25.45464515686035,45378.0
-0.07000000029802322,8.039999961853027,5.869999885559082,-16.75,-25.75,-40.25,-52.875,3.75,6.1875,0.10999999940395355,7.579999923706055,6.210000038146973,0.88140869140625,0.4058837890625,-0.10711669921875,-0.21649169921875,100568.6328125,25.453561782836914,45418.0
-0.029999999329447746,7.309999942779541,6.059999942779541,-18.0,-24.0,-40.5625,-55.1875,2.6875,5.5,0.12999999523162842,7.349999904632568,6.480000019073486,0.889404296875,0.38909912109375,-0.10302734375,-0.21661376953125,100568.7734375,25.454483032226562,45458.0
0.05000000074505806,7.039999961853027,6.300000190734863,-18.0,-24.0,-40.5625,-58.0625,1.1875,2.6875,0.14000000059604645,7.090000152587891,6.760000228881836,0.8970947265625,0.37164306640625,-0.09869384765625,-0.21771240234375,100568.34375,25.45401382446289,45498.0
0.20000000298023224,6.460000038146973,6.579999923706055,-16.0625,-22.5,-42.875,-55.875,1.5,-0.1875,0.14000000059604645,6.820000171661377,7.03000020980835,0.9039306640625,0.35467529296875,-0.09405517578125,-0.21954345703125,100568.1640625,25.455402374267578,45538.0
0.029999999329447746,6.519999980926514,6.849999904632568,-16.0625,-20.0,-42.0625,-57.3125,1.1875,-2.25,0.12999999523162842,6.550000190734863,7.289999961853027,0.9105224609375,0.33734130859375,-0.08917236328125,-0.221923828125,100568.2109375,25.455293655395508,45578.0
0.10999999940395355,5.730000019073486,7.090000152587891,-15.375,-17.6875,-43.5625,-53.3125,1.0,-2.75,0.10999999940395355,6.269999980926514,7.53000020980835,0.91619873046875,0.321044921875,-0.08447265625,-0.22430419921875,100568.703125,25.45866584777832,45618.0
0.0,6.090000152587891,7.329999923706055,-15.0,-16.5625,-44.75,-55.1875,0.1875,-3.4375,0.09000000357627869,5.989999771118164,7.75,0.9217529296875,0.3040771484375,-0.07989501953125,-0.22698974609375,100568.03125,25.45772933959961,45658.0
0.15000000596046448,5.320000171661377,7.570000171661377,-15.0,-16.5625,-44.75,-54.875,-0.5625,-4.4375,0.07999999821186066,5.699999809265137,7.96999979019165,0.92681884765625,0.2872314453125,-0.07525634765625,-0.2298583984375,100568.1484375,25.45762062072754,45698.0
0.03999999910593033,5.230000019073486,7.800000190734863,-15.75,-12.75,-45.5,-53.9375,0.3125,-4.6875,0.05999999865889549,5.409999847412109,8.170000076293945,0.93157958984375,0.27032470703125,-0.07049560546875,-0.232666015625,100568.2265625,25.4598388671875,45738.0
0.09000000357627869,4.670000076293945,8.079999923706055,-15.0,-12.5625,-45.1875,-53.1875,0.8125,-4.4375,0.03999999910593033,5.110000133514404,8.359999656677246,0.93597412109375,0.2537841796875,-0.065673828125,-0.235107421875,100568.140625,25.460344314575195,45778.0
-0.05000000074505806,4.840000152587891,8.239999771118164,-13.875,-10.25,-45.5,-54.6875,0.3125,-3.125,0.029999999329447746,4.800000190734863,8.539999961853027,0.94024658203125,0.23651123046875,-0.06103515625,-0.2373046875,100567.9921875,25.461875915527344,45818.0
-0.03999999910593033,4.210000038146973,8.420000076293945,-13.875,-8.375,-45.0,-54.6875,-0.5,-2.375,0.019999999552965164,4.480000019073486,8.720000267028809,0.94427490234375,0.218994140625,-0.05670166015625,-0.23907470703125,100567.9296875,25.462453842163086,45858.0
-0.03999999910593033,4.099999904632568,8.600000381469727,-13.875,-8.375,-45.0,-55.4375,-1.3125,-1.75,0.019999999552965164,4.230000019073486,8.84000015258789,0.9481201171875,0.200927734375,-0.052490234375,-0.24072265625,100567.59375,25.463462829589844,45898.0
0.05000000074505806,3.4200000762939453,8.779999732971191,-13.875,-6.375,-46.0625,-55.5,-1.4375,-1.25,0.029999999329447746,3.809999942779541,9.029999732971191,0.9515380859375,0.1832275390625,-0.04840087890625,-0.2421875,100566.9453125,25.46422004699707,45938.0
0.009999999776482582,3.4800000190734863,8.90999984741211,-14.375,-3.375,-46.0,-54.0625,-1.0625,-0.625,0.029999999329447746,3.4800000190734863,9.15999984741211,0.95465087890625,0.165771484375,-0.0443115234375,-0.2432861328125,100567.046875,25.463048934936523,45978.0
-0.029999999329447746,2.549999952316284,9.039999961853027,-13.6875,-2.0,-45.5,-50.5625,-2.125,-1.0,0.03999999910593033,3.1500000953674316,9.279999732971191,0.95721435546875,0.14947509765625,-0.0408935546875,-0.24444580078125,100567.640625,25.46391487121582,46018.0
0.009999999776482582,2.9600000381469727,9.170000076293945,-13.6875,1.1875,-45.875,-48.875,-2.625,-0.875,0.05000000074505806,2.9200000762939453,9.359999656677246,0.95892333984375,0.13720703125,-0.0384521484375,-0.24530029296875,100566.9140625,25.462814331054688,46058.0
0.0,2.0899999141693115,9.270000457763672,-13.6875,1.1875,-45.875,-49.75,-3.5,-1.0,0.07000000029802322,2.5999999046325684,9.449999809265137,0.9609375,0.12103271484375,-0.0355224609375,-0.246337890625,100566.234375,25.46200180053711,46098.0
0.07999999821186066,2.1700000762939453,9.319999694824219,-14.0,3.0,-45.5,-46.8125,-4.1875,-0.25,0.10000000149011612,2.2200000286102295,9.539999961853027,0.96307373046875,0.1015625,-0.0323486328125,-0.2471923828125,100566.4140625,25.46485137939453,46138.0
0.18000000715255737,1.4800000190734863,9.380000114440918,-14.75,4.75,-46.0,-45.4375,-4.5625,1.125,0.12999999523162842,1.9299999475479126,9.609999656677246,0.964599609375,0.087158203125,-0.03021240234375,-0.2470703125,100567.0234375,25.466421127319336,46178.0
0.2800000011920929,1.6799999475479126,9.489999771118164,-13.6875,6.6875,-46.0,-40.3125,-2.75,3.5625,0.1599999964237213,1.659999966621399,9.65999984741211,0.966064453125,0.07330322265625,-0.0277099609375,-0.2462158203125,100567.125,25.46643829345703,46218.0
0.23999999463558197,0.949999988079071,9.529999732971191,-14.75,7.375,-44.75,-43.1875,-2.375,4.625,0.17000000178813934,1.4500000476837158,9.6899995803833,0.967041015625,0.06268310546875,-0.02569580078125,-0.245361328125,100566.9609375,25.46528434753418,46258.0
0.3499999940395355,0.6899999976158142,9.59000015258789,-14.75,7.375,-44.75,-38.1875,-0.6875,4.4375,0.1899999976158142,1.1799999475479126,9.729999542236328,0.9681396484375,0.05023193359375,-0.0228271484375,-0.2442626953125,100566.390625,25.466745376586914,46298.0
0.18000000715255737,0.3199999928474426,9.640000343322754,-14.0,10.6875,-43.5625,-35.375,0.125,3.375,0.1899999976158142,0.8799999952316284,9.760000228881836,0.96893310546875,0.03887939453125,-0.02001953125,-0.24346923828125,100566.1796875,25.46840476989746,46338.0
0.20999999344348907,0.28999999165534973,9.65999984741211,-13.75,11.5,-44.875,-30.1875,-0.9375,1.3125,0.1899999976158142,0.7300000190734863,9.770000457763672,0.96942138671875,0.02630615234375,-0.01739501953125,-0.243408203125,100566.6875,25.473129272460938,46378.0
0.2199999988079071,0.18000000715255737,9.729999542236328,-14.0,12.5625,-44.875,-27.4375,-1.25,-0.25,0.20000000298023224,0.5299999713897705,9.779999732971191,0.96954345703125,0.01922607421875,-0.01593017578125,-0.2435302734375,100567.1015625,25.47608757019043,46418.0
0.20000000298023224,0.07999999821186066,9.75,-14.0,14.25,-43.1875,-25.3125,0.0,-0.25,0.20999999344348907,0.3499999940395355,9.789999961853027,0.9697265625,0.0106201171875,-0.0137939453125,-0.24365234375,100566.3203125,25.475996017456055,46458.0
0.18000000715255737,-0.1899999976158142,9.800000190734863,-14.0,14.25,-43.1875,-23.5625,0.0,-0.875,0.20999999344348907,0.18000000715255737,9.800000190734863,0.96966552734375,0.00250244140625,-0.01165771484375,-0.24407958984375,100567.46875,25.479387283325195,46498.0
0.23999999463558197,-0.05999999865889549,9.789999961853027,-12.875,15.0,-43.6875,-21.0,-0.4375,-1.8125,0.20000000298023224,0.029999999329447746,9.800000190734863,0.96954345703125,-0.0045166015625,-0.00982666015625,-0.24481201171875,100567.875,25.48019790649414,46538.0
0.23999999463558197,-0.3100000023841858,9.789999961853027,-14.0,15.6875,-43.6875,-21.5,-0.125,-2.75,0.20000000298023224,-0.10000000149011612,9.800000190734863,0.96923828125,-0.011474609375,-0.00811767578125,-0.24578857421875,100567.890625,25.480234146118164,46578.0
0.23999999463558197,-0.3499999940395355,9.800000190734863,-13.6875,16.0625,-43.25,-18.9375,-0.1875,-2.8125,0.20000000298023224,-0.23999999463558197,9.800000190734863,0.96893310546875,-0.01776123046875,-0.00653076171875,-0.2467041015625,100568.078125,25.4808292388916,46618.0
0.17000000178813934,-0.41999998688697815,9.789999961853027,-13.25,16.5,-42.875,-19.375,0.375,-2.375,0.20999999344348907,-0.36000001430511475,9.789999961853027,0.96856689453125,-0.0240478515625,-0.00494384765625,-0.2474365234375,100568.265625,25.479549407958984,46658.0
0.18000000715255737,-0.25,9.720000267028809,-13.25,16.5,-42.875,-19.0625,0.1875,-2.0,0.20999999344348907,-0.49000000953674316,9.789999961853027,0.96826171875,-0.03021240234375,-0.0032958984375,-0.2481689453125,100568.7734375,25.477439880371094,46698.0
0.09000000357627869,-0.4300000071525574,9.829999923706055,-14.375,17.5625,-41.6875,-24.4375,-0.75,-2.3125,0.20000000298023224,-0.6299999952316284,9.779999732971191,0.9677734375,-0.0379638671875,-0.00146484375,-0.2489013671875,100568.328125,25.474699020385742,46738.0
0.17000000178813934,-0.5,9.710000038146973,-14.75,18.25,-42.375,-26.5,-1.0,-2.6875,0.20999999344348907,-0.800000011920929,9.770000457763672,0.9671630859375,-0.04681396484375,0.00030517578125,-0.24981689453125,100568.671875,25.473796844482422,46778.0
0.23000000417232513,-1.1299999952316284,9.729999542236328,-14.0,20.0625,-41.6875,-31.8125,-1.3125,-2.75,0.2199999988079071,-0.9800000190734863,9.75,0.96636962890625,-0.05712890625,0.00250244140625,-0.2506103515625,100568.40625,25.471975326538086,46818.0
0.10000000149011612,-1.5299999713897705,9.90999984741211,-14.75,21.1875,-41.25,-30.6875,-1.75,-1.375,0.23000000417232513,-1.190000057220459,9.729999542236328,0.9656982421875,-0.067138671875,0.00457763671875,-0.25091552734375,100568.265625,25.471181869506836,46858.0
0.3199999928474426,-1.850000023841858,9.710000038146973,-14.75,21.1875,-41.25,-27.125,-0.0625,0.125,0.23999999463558197,-1.3799999952316284,9.699999809265137,0.965087890625,-0.07568359375,0.0068359375,-0.250732421875,100568.546875,25.474048614501953,46898.0
0.30000001192092896,-1.690000057220459,9.680000305175781,-14.75,21.5625,-40.0625,-22.75,1.1875,1.25,0.23999999463558197,-1.5399999618530273,9.680000305175781,0.964599609375,-0.08294677734375,0.009033203125,-0.25018310546875,100568.2578125,25.474464416503906,46938.0
0.10999999940395355,-1.9900000095367432,9.670000076293945,-14.375,22.25,-40.0625,-22.875,-0.125,1.25,0.23000000417232513,-1.6799999475479126,9.649999618530273,0.9639892578125,-0.0902099609375,0.01092529296875,-0.24981689453125,100568.3984375,25.47477149963379,46978.0
0.30000001192092896,-1.7799999713897705,9.640000343322754,-14.0,23.75,-39.375,-20.125,0.3125,0.0625,0.23000000417232513,-1.8200000524520874,9.630000114440918,0.96337890625,-0.096923828125,0.0126953125,-0.249755859375,100568.859375,25.477313995361328,47018.0
0.3400000035762787,-2.1700000762939453,9.710000038146973,-14.0,23.375,-40.0625,-22.125,-1.375,-0.75,0.23000000417232513,-1.9600000381469727,9.600000381469727,0.9625244140625,-0.10430908203125,0.01422119140625,-0.2498779296875,100568.7734375,25.477493286132812,47058.0
0.2800000011920929,-2.240000009536743,9.579999923706055,-14.0,23.375,-40.0625,-20.6875,-1.375,-1.4375,0.23999999463558197,-2.0999999046325684,9.569999694824219,0.961669921875,-0.11114501953125,0.01556396484375,-0.25018310546875,100569.1640625,25.478775024414062,47098.0
0.23999999463558197,-2.259999990463257,9.630000114440918,-14.375,24.875,-38.5625,-19.625,-1.125,-1.0,0.25,-2.2300000190734863,9.539999961853027,0.96087646484375,-0.1175537109375,0.01678466796875,-0.25030517578125,100569.515625,25.479171752929688,47138.0
0.27000001072883606,-2.2200000286102295,9.5,-13.6875,25.5625,-37.75,-20.125,-1.125,-0.8125,0.25999999046325684,-2.359999895095825,9.510000228881836,0.9599609375,-0.124267578125,0.01806640625,-0.25048828125,100569.125,25.4788818359375,47178.0
0.3400000035762787,-2.2899999618530273,9.479999542236328,-14.375,26.0,-37.375,-22.6875,-2.1875,-1.625,0.27000001072883606,-2.490000009536743,9.470000267028809,0.95880126953125,-0.1319580078125,0.01922607421875,-0.2508544921875,100569.1796875,25.4792423248291,47218.0
0.5699999928474426,-2.680000066757202,9.4399995803833,-14.75,26.6875,-37.0625,-25.875,-2.375,-1.5,0.28999999165534973,-2.6500000953674316,9.430000305175781,0.95751953125,-0.14031982421875,0.02056884765625,-0.25103759765625,100568.875,25.47893714904785,47258.0
0.2800000011920929,-2.759999990463257,9.4399995803833,-14.75,26.6875,-37.0625,-25.875,-0.875,-0.6875,0.30000001192092896,-2.809999942779541,9.380000114440918,0.9561767578125,-0.1488037109375,0.0223388671875,-0.25103759765625,100568.90625,25.47871971130371,47298.0
0.4099999964237213,-2.7899999618530273,9.369999885559082,-15.0625,27.375,-35.5,-27.25,-0.3125,-0.6875,0.3100000023841858,-2.9800000190734863,9.329999923706055,0.95477294921875,-0.1575927734375,0.02447509765625,-0.2509765625,100569.09375,25.479116439819336,47338.0
0.3799999952316284,-3.1700000762939453,9.270000457763672,-14.0,28.5625,-36.25,-29.5625,1.125,0.4375,0.3100000023841858,-3.1600000858306885,9.270000457763672,0.953125,-0.16729736328125,0.027099609375,-0.250732421875,100569.5234375,25.47942352294922,47378.0
0.25,-3.380000114440918,9.3100004196167,-14.0,30.75,-35.0625,-29.5625,0.1875,1.125,0.3100000023841858,-3.3499999046325684,9.210000038146973,0.95147705078125,-0.1767578125,0.02984619140625,-0.25006103515625,100569.4140625,25.480234146118164,47418.0
0.23999999463558197,-3.4700000286102295,9.170000076293945,-14.0,30.75,-35.0625,-29.9375,1.0625,2.1875,0.30000001192092896,-3.5299999713897705,9.140000343322754,0.9498291015625,-0.1865234375,0.03277587890625,-0.24896240234375,100569.6171875,25.4808292388916,47458.0
0.41999998688697815,-3.940000057220459,9.140000343322754,-14.375,30.6875,-35.1875,-30.3125,0.5625,2.125,0.28999999165534973,-3.7200000286102295,9.0600004196167,0.9481201171875,-0.196044921875,0.03546142578125,-0.247802734375,100570.125,25.481857299804688,47498.0
0.30000001192092896,-4.070000171661377,9.09000015258789,-14.0,32.1875,-33.5625,-27.3125,-0.125,2.375,0.28999999165534973,-3.9000000953674316,8.989999771118164,0.94635009765625,-0.205078125,0.03778076171875,-0.246826171875,100570.65625,25.4820556640625,47538.0
0.23999999463558197,-4.210000038146973,8.989999771118164,-15.0625,32.875,-31.6875,-27.1875,-0.0625,1.125,0.2800000011920929,-4.070000171661377,8.90999984741211,0.9444580078125,-0.2138671875,0.0400390625,-0.2462158203125,100571.1171875,25.483354568481445,47578.0
0.7300000190734863,-4.099999904632568,8.619999885559082,-12.875,33.6875,-32.875,-27.6875,-1.8125,0.125,0.28999999165534973,-4.230000019073486,8.829999923706055,0.9423828125,-0.22283935546875,0.0421142578125,-0.24591064453125,100571.3984375,25.48375129699707,47618.0
0.38999998569488525,-4.329999923706055,8.829999923706055,-12.875,33.6875,-32.875,-28.125,-1.5625,-1.0625,0.30000001192092896,-4.400000095367432,8.75,0.940185546875,-0.23199462890625,0.0439453125,-0.24560546875,100570.75,25.4829044342041,47658.0
0.3199999928474426,-4.53000020980835,8.739999771118164,-14.0,33.5625,-31.75,-28.625,-0.5625,-0.6875,0.30000001192092896,-4.570000171661377,8.65999984741211,0.93780517578125,-0.2412109375,0.046142578125,-0.24530029296875,100571.3203125,25.485139846801758,47698.0
0.14000000059604645,-4.71999979019165,8.930000305175781,-13.25,35.75,-30.5625,-30.4375,-2.25,1.5,0.3100000023841858,-4.739999771118164,8.569999694824219,0.9354248046875,-0.2509765625,0.04864501953125,-0.2442626953125,100570.765625,25.483932495117188,47738.0
0.6899999976158142,-4.989999771118164,8.430000305175781,-13.25,36.1875,-30.1875,-31.3125,4.375,4.1875,0.28999999165534973,-4.920000076293945,8.470000267028809,0.93292236328125,-0.2606201171875,0.0531005859375,-0.24285888671875,100571.03125,25.483030319213867,47778.0
0.2800000011920929,-5.650000095367432,8.390000343322754,-13.25,36.875,-27.5,-31.875,5.875,4.0625,0.25,-5.059999942779541,8.390000343322754,0.9305419921875,-0.26904296875,0.05755615234375,-0.24163818359375,100571.1875,25.482940673828125,47818.0
-0.029999999329447746,-5.690000057220459,8.369999885559082,-13.25,36.875,-27.5,-22.8125,4.75,2.9375,0.20999999344348907,-5.210000038146973,8.300000190734863,0.92877197265625,-0.2752685546875,0.06072998046875,-0.24066162109375,100571.0546875,25.48402214050293,47858.0
-0.019999999552965164,-5.179999828338623,8.319999694824219,-12.875,38.0625,-27.875,-21.0,2.125,2.5,0.18000000715255737,-5.360000133514404,8.199999809265137,0.9267578125,-0.2822265625,0.0631103515625,-0.2398681640625,100571.5546875,25.485986709594727,47898.0
0.05999999865889549,-5.159999847412109,8.279999732971191,-13.6875,38.0625,-27.5625,-24.625,1.0,0.5,0.17000000178813934,-5.489999771118164,8.119999885559082,0.92425537109375,-0.2901611328125,0.0655517578125,-0.2393798828125,100571.4375,25.485139846801758,47938.0
0.3100000023841858,-5.510000228881836,8.079999923706055,-14.75,39.0625,-26.0,-28.375,0.5625,-1.125,0.17000000178813934,-5.639999866485596,8.010000228881836,0.92120361328125,-0.29913330078125,0.06781005859375,-0.2392578125,100571.359375,25.483373641967773,47978.0
0.15000000596046448,-5.820000171661377,8.020000457763672,-14.0,39.75,-25.875,-29.0,-0.75,-3.4375,0.18000000715255737,-5.760000228881836,7.929999828338623,0.9188232421875,-0.3060302734375,0.0689697265625,-0.2396240234375,100570.8671875,25.482614517211914,48018.0
0.09000000357627869,-5.940000057220459,7.909999847412109,-14.0,39.75,-25.875,-29.75,-1.8125,-4.25,0.20000000298023224,-5.909999847412109,7.809999942779541,0.91546630859375,-0.31524658203125,0.0703125,-0.239990234375,100570.4921875,25.482614517211914,48058.0
0.1599999964237213,-6.150000095367432,7.820000171661377,-13.25,40.1875,-24.375,-30.0625,-3.125,-3.375,0.23999999463558197,-6.099999904632568,7.670000076293945,0.91131591796875,-0.326904296875,0.07147216796875,-0.2398681640625,100571.1328125,25.48550033569336,48098.0
0.2199999988079071,-6.289999961853027,7.710000038146973,-13.25,40.1875,-22.5,-28.1875,-4.4375,-3.0,0.27000001072883606,-6.25,7.550000190734863,0.90814208984375,-0.33575439453125,0.0718994140625,-0.23956298828125,100571.4453125,25.484220504760742,48138.0
0.3499999940395355,-6.199999809265137,7.590000152587891,-13.6875,41.0,-21.5625,-27.125,-4.625,-2.0625,0.30000001192092896,-6.349999904632568,7.460000038146973,0.90496826171875,-0.34454345703125,0.072509765625,-0.23883056640625,100571.2578125,25.483245849609375,48178.0
0.3400000035762787,-6.460000038146973,7.440000057220459,-13.6875,42.5,-20.0625,-28.9375,-4.5625,-0.625,0.33000001311302185,-6.489999771118164,7.340000152587891,0.902587890625,-0.35125732421875,0.07318115234375,-0.23797607421875,100571.53125,25.484237670898438,48218.0
0.4000000059604645,-6.440000057220459,7.28000020980835,-13.6875,42.5,-20.0625,-30.125,-3.75,0.125,0.3499999940395355,-6.619999885559082,7.210000038146973,0.89923095703125,-0.3603515625,0.0740966796875,-0.23681640625,100571.4453125,25.48615074157715,48258.0
0.6100000143051147,-6.480000019073486,6.869999885559082,-14.0,42.875,-20.5,-31.9375,-3.5625,0.9375,0.3700000047683716,-6.769999980926514,7.079999923706055,0.894287109375,-0.373046875,0.075927734375,-0.23516845703125,100572.125,25.48932456970215,48298.0
0.44999998807907104,-7.130000114440918,6.980000019073486,-14.375,44.0,-19.375,-34.3125,-2.75,0.0,0.38999998569488525,-6.929999828338623,6.920000076293945,0.89013671875,-0.38330078125,0.0777587890625,-0.23394775390625,100572.484375,25.487646102905273,48338.0
0.4399999976158142,-7.380000114440918,6.789999961853027,-13.1875,43.1875,-17.5,-32.125,-2.0,0.0,0.4000000059604645,-7.079999923706055,6.760000228881836,0.88623046875,-0.39251708984375,0.0794677734375,-0.23284912109375,100572.8125,25.48640251159668,48378.0
0.6899999976158142,-7.659999847412109,6.739999771118164,-14.0,44.0,-15.875,-30.9375,-1.9375,0.4375,0.4099999964237213,-7.21999979019165,6.619999885559082,0.88323974609375,-0.39935302734375,0.0810546875,-0.232177734375,100572.3828125,25.486042022705078,48418.0
0.49000000953674316,-7.860000133514404,6.510000228881836,-14.0,44.0,-15.875,-24.625,-0.375,-0.5,0.4099999964237213,-7.340000152587891,6.480000019073486,0.8798828125,-0.40655517578125,0.0828857421875,-0.23162841796875,100571.6328125,25.485193252563477,48458.0
0.5400000214576721,-7.710000038146973,6.329999923706055,-14.0,45.0,-14.375,-19.4375,1.625,-0.0625,0.4099999964237213,-7.429999828338623,6.369999885559082,0.8770751953125,-0.412353515625,0.08477783203125,-0.23126220703125,100571.5234375,25.485698699951172,48498.0
0.30000001192092896,-7.389999866485596,6.230000019073486,-14.0,44.6875,-14.0,-18.8125,0.1875,-0.1875,0.4099999964237213,-7.510000228881836,6.28000020980835,0.87432861328125,-0.41815185546875,0.0863037109375,-0.23077392578125,100571.453125,25.484365463256836,48538.0
0.10999999940395355,-7.440000057220459,6.429999828338623,-14.0,45.5,-13.5625,-23.25,-0.9375,-1.3125,0.4099999964237213,-7.599999904632568,6.170000076293945,0.8709716796875,-0.42510986328125,0.08758544921875,-0.230224609375,100571.9375,25.484508514404297,48578.0
0.3700000047683716,-7.480000019073486,6.170000076293945,-14.0,45.875,-12.0625,-25.0,-1.5625,-1.25,0.4300000071525574,-7.699999809265137,6.039999961853027,0.8673095703125,-0.4326171875,0.08868408203125,-0.229736328125,100572.0859375,25.484617233276367,48618.0
0.44999998807907104,-7.510000228881836,5.949999809265137,-14.0,45.875,-12.0625,-27.8125,-0.125,-0.5,0.4399999976158142,-7.809999942779541,5.909999847412109,0.86322021484375,-0.440673828125,0.09051513671875,-0.2291259765625,100572.109375,25.487014770507812,48658.0
0.5799999833106995,-7.820000171661377,5.849999904632568,-13.6875,46.1875,-10.875,-32.125,-0.1875,-1.625,0.44999998807907104,-7.920000076293945,5.75,0.8582763671875,-0.4500732421875,0.0926513671875,-0.228515625,100571.8046875,25.487646102905273,48698.0
0.3799999952316284,-8.0600004196167,5.659999847412109,-14.375,46.1875,-10.0625,-34.75,1.0,-0.375,0.44999998807907104,-8.050000190734863,5.570000171661377,0.8529052734375,-0.46002197265625,0.09552001953125,-0.22760009765625,100571.0234375,25.485248565673828,48738.0
0.5199999809265137,-7.880000114440918,5.460000038146973,-14.75,46.5625,-8.0625,-32.8125,-0.3125,-0.8125,0.44999998807907104,-8.180000305175781,5.380000114440918,0.84747314453125,-0.4698486328125,0.0980224609375,-0.22662353515625,100570.8671875,25.48459815979004,48778.0
0.47999998927116394,-8.609999656677246,5.179999828338623,-14.375,47.375,-7.75,-36.5,0.0625,0.4375,0.44999998807907104,-8.3100004196167,5.179999828338623,0.8419189453125,-0.47998046875,0.1007080078125,-0.22515869140625,100570.953125,25.485265731811523,48818.0
0.5199999809265137,-8.279999732971191,5.010000228881836,-14.375,47.375,-7.75,-32.0625,-0.75,2.125,0.44999998807907104,-8.420000076293945,4.989999771118164,0.83673095703125,-0.48919677734375,0.103271484375,-0.22332763671875,100570.8359375,25.485754013061523,48858.0
0.4699999988079071,-8.770000457763672,4.820000171661377,-14.75,47.375,-6.25,-34.875,-1.0625,2.6875,0.4399999976158142,-8.529999732971191,4.800000190734863,0.8311767578125,-0.49896240234375,0.10595703125,-0.22119140625,100571.1796875,25.487285614013672,48898.0
0.44999998807907104,-8.6899995803833,4.480000019073486,-14.75,47.25,-4.25,-31.75,-1.3125,2.25,0.4300000071525574,-8.640000343322754,4.599999904632568,0.825927734375,-0.5079345703125,0.10845947265625,-0.21917724609375,100570.6171875,25.486709594726562,48938.0
0.6399999856948853,-9.079999923706055,4.449999809265137,-14.375,47.0,-3.5625,-35.75,-2.375,1.9375,0.41999998688697815,-8.739999771118164,4.409999847412109,0.82012939453125,-0.517578125,0.11102294921875,-0.2171630859375,100570.90625,25.48798942565918,48978.0
0.3700000047683716,-9.270000457763672,4.21999979019165,-14.0,47.375,-1.875,-30.4375,-0.3125,2.875,0.4099999964237213,-8.84000015258789,4.210000038146973,0.81494140625,-0.5260009765625,0.113525390625,-0.215087890625,100570.9453125,25.487808227539062,49018.0
0.20000000298023224,-9.15999984741211,4.03000020980835,-14.0,47.375,-1.875,-28.875,-1.875,2.6875,0.38999998569488525,-8.920000076293945,4.03000020980835,0.80987548828125,-0.5341796875,0.11572265625,-0.212890625,100570.6953125,25.4876651763916,49058.0
0.33000001311302185,-9.260000228881836,3.799999952316284,-13.25,48.1875,0.375,-26.5625,-1.625,3.0625,0.3799999952316284,-9.0,3.859999895095825,0.80511474609375,-0.54180908203125,0.1175537109375,-0.21075439453125,100570.71875,25.486997604370117,49098.0
0.2199999988079071,-9.460000038146973,3.890000104904175,-14.0,48.1875,-0.375,-25.1875,-1.9375,0.6875,0.3799999952316284,-9.069999694824219,3.690000057220459,0.80029296875,-0.54913330078125,0.11907958984375,-0.20928955078125,100570.125,25.485321044921875,49138.0
0.6200000047683716,-9.25,3.299999952316284,-13.6875,48.1875,1.5625,-24.9375,-2.8125,-0.3125,0.3799999952316284,-9.130000114440918,3.5299999713897705,0.79571533203125,-0.5560302734375,0.1202392578125,-0.2078857421875,100571.0078125,25.48638343811035,49178.0
0.8199999928474426,-9.270000457763672,3.0899999141693115,-13.6875,48.1875,1.5625,-23.8125,-2.625,1.0625,0.38999998569488525,-9.1899995803833,3.380000114440918,0.7913818359375,-0.5623779296875,0.12152099609375,-0.20648193359375,100571.203125,25.48602294921875,49218.0
0.4300000071525574,-9.350000381469727,3.180000066757202,-14.0,47.75,3.0,-21.9375,-2.625,1.6875,0.3799999952316284,-9.239999771118164,3.240000009536743,0.78753662109375,-0.5682373046875,0.1226806640625,-0.20458984375,100570.78125,25.48517608642578,49258.0
0.4099999964237213,-8.9399995803833,3.0799999237060547,-14.0,48.5,4.1875,-22.9375,-2.8125,2.625,0.3700000047683716,-9.289999961853027,3.0999999046325684,0.78326416015625,-0.57464599609375,0.12408447265625,-0.2022705078125,100570.96875,25.485122680664062,49298.0
0.36000001430511475,-9.140000343322754,3.190000057220459,-14.0,48.1875,4.1875,-28.8125,-3.125,4.125,0.36000001430511475,-9.34000015258789,2.930000066757202,0.77789306640625,-0.58245849609375,0.1260986328125,-0.1993408203125,100570.78125,25.484508514404297,49338.0
0.25999999046325684,-9.680000305175781,2.8299999237060547,-13.25,47.75,6.5625,-26.875,-1.8125,3.0,0.3400000035762787,-9.399999618530273,2.75,0.77264404296875,-0.58978271484375,0.12799072265625,-0.197021484375,100570.6484375,25.484617233276367,49378.0
0.41999998688697815,-9.699999809265137,2.619999885559082,-13.25,47.75,6.5625,-27.0625,-1.9375,2.375,0.33000001311302185,-9.449999809265137,2.569999933242798,0.76763916015625,-0.59661865234375,0.12982177734375,-0.19482421875,100570.078125,25.484111785888672,49418.0
0.5299999713897705,-10.630000114440918,2.4700000286102295,-12.5625,48.5,8.1875,-21.6875,-0.375,1.75,0.3100000023841858,-9.489999771118164,2.4200000762939453,0.763916015625,-0.60150146484375,0.1314697265625,-0.19329833984375,100570.2421875,25.486059188842773,49458.0
0.25,-9.470000267028809,2.450000047683716,-13.375,47.875,8.375,-14.5,0.0,1.4375,0.30000001192092896,-9.520000457763672,2.319999933242798,0.76092529296875,-0.6053466796875,0.13262939453125,-0.1922607421875,100570.1328125,25.485788345336914,49498.0
0.41999998688697815,-10.40999984741211,2.3299999237060547,-13.0,47.5,8.0625,-8.5625,0.0,0.0625,0.30000001192092896,-9.539999961853027,2.2300000190734863,0.75885009765625,-0.60797119140625,0.13311767578125,-0.19189453125,100569.90625,25.484994888305664,49538.0
0.3799999952316284,-9.609999656677246,2.299999952316284,-13.375,47.375,10.0625,-9.625,-0.5,-2.3125,0.3100000023841858,-9.550000190734863,2.1700000762939453,0.75677490234375,-0.610595703125,0.1331787109375,-0.19183349609375,100569.8359375,25.48613166809082,49578.0
0.3499999940395355,-10.289999961853027,2.2699999809265137,-13.375,47.375,10.0625,-8.0,-0.9375,-1.4375,0.3199999928474426,-9.5600004196167,2.130000114440918,0.75555419921875,-0.61212158203125,0.133056640625,-0.19158935546875,100570.3515625,25.48757553100586,49618.0
0.38999998569488525,-9.789999961853027,2.2799999713897705,-13.75,47.375,9.6875,-4.1875,-1.3125,-0.375,0.3199999928474426,-9.569999694824219,2.0899999141693115,0.7548828125,-0.6131591796875,0.1329345703125,-0.19110107421875,100570.59375,25.490386962890625,49658.0
0.4000000059604645,-9.699999809265137,2.1700000762939453,-13.0,47.375,10.875,-2.5625,-1.0625,2.1875,0.3199999928474426,-9.569999694824219,2.069999933242798,0.75469970703125,-0.6136474609375,0.13323974609375,-0.19012451171875,100570.8515625,25.490171432495117,49698.0
0.4699999988079071,-9.770000457763672,2.140000104904175,-13.0,47.5,10.875,-0.25,-1.4375,1.5625,0.3100000023841858,-9.569999694824219,2.069999933242798,0.75482177734375,-0.61370849609375,0.1331787109375,-0.18951416015625,100570.90625,25.491180419921875,49738.0
0.17000000178813934,-9.600000381469727,2.180000066757202,-14.0625,47.5,10.375,0.25,-1.125,2.375,0.30000001192092896,-9.579999923706055,2.069999933242798,0.7550048828125,-0.6136474609375,0.13330078125,-0.188720703125,100570.765625,25.489612579345703,49778.0
0.5199999809265137,-9.960000038146973,2.190000057220459,-14.0625,47.5,10.375,0.0625,-2.1875,1.1875,0.28999999165534973,-9.579999923706055,2.069999933242798,0.75537109375,-0.61346435546875,0.1329345703125,-0.18804931640625,100570.515625,25.490766525268555,49818.0
0.36000001430511475,-9.630000114440918,2.130000114440918,-13.375,47.5,10.75,3.0,-2.1875,0.75,0.28999999165534973,-9.569999694824219,2.0899999141693115,0.756103515625,-0.61285400390625,0.1319580078125,-0.18780517578125,100571.1640625,25.49449920654297,49858.0
0.3799999952316284,-9.829999923706055,2.140000104904175,-13.375,47.0625,10.375,3.375,-0.4375,-0.8125,0.30000001192092896,-9.569999694824219,2.109999895095825,0.7569580078125,-0.61187744140625,0.1317138671875,-0.1878662109375,100571.46875,25.49269676208496,49898.0
0.33000001311302185,-9.829999923706055,2.240000009536743,-13.375,47.5,11.1875,4.3125,-0.75,1.4375,0.28999999165534973,-9.5600004196167,2.130000114440918,0.75811767578125,-0.61053466796875,0.13128662109375,-0.18780517578125,100571.9609375,25.494787216186523,49938.0
0.4000000059604645,-9.930000305175781,2.180000066757202,-13.0,46.75,10.0,7.75,-0.5,-0.1875,0.28999999165534973,-9.550000190734863,2.1600000858306885,0.75933837890625,-0.6090087890625,0.13079833984375,-0.18817138671875,100572.0859375,25.495220184326172,49978.0
0.46000000834465027,-9.9399995803833,2.1600000858306885,-13.0,46.75,10.0,7.875,-0.625,-1.375,0.30000001192092896,-9.539999961853027,2.2200000286102295,0.760986328125,-0.60693359375,0.12982177734375,-0.18890380859375,100571.8203125,25.496700286865234,50018.0
0.38999998569488525,-10.239999771118164,2.240000009536743,-13.375,47.875,10.5,14.1875,0.625,-1.0625,0.3100000023841858,-9.520000457763672,2.309999942779541,0.763916015625,-0.6031494140625,0.12860107421875,-0.19000244140625,100571.5078125,25.497798919677734,50058.0
0.33000001311302185,-10.130000114440918,2.3499999046325684,-12.6875,47.5,10.0625,18.1875,0.375,-3.8125,0.33000001311302185,-9.5,2.4000000953674316,0.76739501953125,-0.59857177734375,0.12677001953125,-0.191650390625,100571.5234375,25.49978256225586,50098.0
0.3499999940395355,-10.050000190734863,2.450000047683716,-12.6875,48.25,9.25,26.375,0.375,-2.5625,0.3400000035762787,-9.460000038146973,2.5399999618530273,0.7723388671875,-0.592041015625,0.12451171875,-0.1934814453125,100571.5546875,25.50183868408203,50138.0
0.38999998569488525,-9.989999771118164,2.7100000381469727,-13.0,47.0625,6.5625,29.375,0.625,-2.875,0.3700000047683716,-9.40999984741211,2.7100000381469727,0.77801513671875,-0.58441162109375,0.1219482421875,-0.19573974609375,100571.984375,25.50396728515625,50178.0
0.5600000023841858,-10.0600004196167,2.869999885559082,-13.0,47.0625,6.5625,36.5,2.0,-5.6875,0.38999998569488525,-9.350000381469727,2.9200000762939453,0.78460693359375,-0.574951171875,0.118896484375,-0.19921875,100571.6953125,25.50555419921875,50218.0
0.7599999904632568,-9.489999771118164,3.0199999809265137,-14.5,47.5,7.75,44.8125,5.875,-4.0625,0.41999998688697815,-9.260000228881836,3.1700000762939453,0.79217529296875,-0.563720703125,0.11553955078125,-0.2032470703125,100571.875,25.50560760498047,50258.0
0.4300000071525574,-9.979999542236328,3.4200000762939453,-14.0625,47.875,4.5,52.3125,2.0,-5.9375,0.4699999988079071,-9.15999984741211,3.4600000381469727,0.80145263671875,-0.54986572265625,0.11138916015625,-0.2071533203125,100571.40625,25.503318786621094,50298.0
0.3799999952316284,-9.739999771118164,3.5899999141693115,-14.5,48.5625,3.375,60.4375,1.6875,-4.5,0.49000000953674316,-9.020000457763672,3.809999942779541,0.81231689453125,-0.533203125,0.106689453125,-0.21087646484375,100571.765625,25.505084991455078,50338.0
0.6200000047683716,-9.6899995803833,4.019999980926514,-14.875,48.25,0.6875,66.75,1.375,-3.125,0.5099999904632568,-8.84000015258789,4.199999809265137,0.8240966796875,-0.5142822265625,0.10150146484375,-0.214599609375,100571.96875,25.50582504272461,50378.0
0.6499999761581421,-8.770000457763672,4.389999866485596,-14.875,48.25,0.6875,75.1875,3.25,-5.6875,0.5299999713897705,-8.619999885559082,4.630000114440918,0.83636474609375,-0.49322509765625,0.0960693359375,-0.21923828125,100571.53125,25.505788803100586,50418.0
0.3700000047683716,-8.180000305175781,4.809999942779541,-13.75,47.5,-2.75,75.0,3.125,-3.125,0.5400000214576721,-8.369999885559082,5.059999942779541,0.84814453125,-0.47198486328125,0.09075927734375,-0.22283935546875,100571.671875,25.50750160217285,50458.0
0.5099999904632568,-7.909999847412109,5.28000020980835,-14.875,47.5625,-6.0625,70.5625,1.5625,-1.875,0.550000011920929,-8.109999656677246,5.46999979019165,0.85888671875,-0.45166015625,0.08544921875,-0.22576904296875,100572.1484375,25.507646560668945,50498.0
0.6000000238418579,-7.579999923706055,5.730000019073486,-14.875,46.875,-8.375,68.75,0.375,-3.25,0.5600000023841858,-7.849999904632568,5.840000152587891,0.86883544921875,-0.431884765625,0.07989501953125,-0.2286376953125,100571.75,25.50831413269043,50538.0
0.5199999809265137,-7.25,6.190000057220459,-14.0625,47.0,-11.1875,63.8125,1.125,-0.75,0.5699999928474426,-7.579999923706055,6.179999828338623,0.8756103515625,-0.417724609375,0.0762939453125,-0.230224609375,100572.0859375,25.508241653442383,50578.0
0.6600000262260437,-6.900000095367432,6.519999980926514,-14.0625,47.0,-11.1875,59.375,-0.125,-1.3125,0.5699999928474426,-7.320000171661377,6.489999771118164,0.88385009765625,-0.3997802734375,0.07147216796875,-0.2320556640625,100571.953125,25.507610321044922,50618.0
0.699999988079071,-6.440000057220459,6.739999771118164,-15.5625,45.875,-13.0625,53.875,-0.875,0.0,0.5799999833106995,-7.059999942779541,6.769999980926514,0.89111328125,-0.3834228515625,0.06707763671875,-0.23333740234375,100571.8515625,25.507719039916992,50658.0
0.5400000214576721,-6.5,6.909999847412109,-14.0625,44.6875,-15.875,47.0625,-0.5625,0.3125,0.5799999833106995,-6.829999923706055,7.0,0.89862060546875,-0.365478515625,0.062255859375,-0.23455810546875,100571.7109375,25.507789611816406,50698.0
0.7099999785423279,-6.380000114440918,7.179999828338623,-13.75,43.5625,-18.25,45.375,-0.6875,-0.125,0.5799999833106995,-6.610000133514404,7.210000038146973,0.90277099609375,-0.35516357421875,0.0594482421875,-0.2352294921875,100571.3125,25.508440017700195,50738.0
0.7799999713897705,-6.389999866485596,7.46999979019165,-15.5625,43.0,-19.0625,42.8125,1.125,-2.0625,0.5799999833106995,-6.400000095367432,7.400000095367432,0.90771484375,-0.3419189453125,0.0560302734375,-0.2366943359375,100571.796875,25.508909225463867,50778.0
0.5600000023841858,-6.449999809265137,7.699999809265137,-15.5625,43.0,-19.0625,45.75,2.4375,-1.8125,0.5799999833106995,-6.170000076293945,7.590000152587891,0.91265869140625,-0.32781982421875,0.052978515625,-0.23834228515625,100571.6640625,25.508115768432617,50818.0
0.5600000023841858,-5.570000171661377,7.71999979019165,-15.1875,42.5625,-21.0625,47.3125,1.25,-0.4375,0.5799999833106995,-5.920000076293945,7.78000020980835,0.91766357421875,-0.3131103515625,0.049560546875,-0.239501953125,100571.171875,25.506942749023438,50858.0
0.5199999809265137,-5.659999847412109,7.900000095367432,-14.5,41.0625,-21.5,43.75,1.125,-1.875,0.5699999928474426,-5.690000057220459,7.960000038146973,0.922119140625,-0.29931640625,0.04620361328125,-0.24078369140625,100571.546875,25.507789611816406,50898.0
0.7200000286102295,-5.659999847412109,8.140000343322754,-15.5625,40.25,-23.875,44.75,1.25,-2.9375,0.5799999833106995,-5.449999809265137,8.130000114440918,0.92620849609375,-0.28546142578125,0.04266357421875,-0.24249267578125,100571.65625,25.50899887084961,50938.0
0.5299999713897705,-5.260000228881836,8.25,-15.5625,39.5625,-25.875,48.375,2.25,-2.9375,0.5799999833106995,-5.179999828338623,8.300000190734863,0.930419921875,-0.2703857421875,0.03912353515625,-0.24432373046875,100571.3046875,25.508764266967773,50978.0
0.44999998807907104,-4.579999923706055,8.380000114440918,-15.5625,39.5625,-25.875,44.625,1.375,-4.0,0.5799999833106995,-4.920000076293945,8.460000038146973,0.93408203125,-0.2559814453125,0.03546142578125,-0.24627685546875,100570.9375,25.508007049560547,51018.0
0.5699999928474426,-4.579999923706055,8.579999923706055,-14.5,37.375,-27.5,40.125,1.25,-3.9375,0.5899999737739563,-4.679999828338623,8.59000015258789,0.93719482421875,-0.2430419921875,0.0321044921875,-0.24810791015625,100571.125,25.508583068847656,51058.0
0.6800000071525574,-4.389999866485596,8.699999809265137,-15.6875,36.6875,-29.5,39.5,2.125,-3.375,0.5899999737739563,-4.440000057220459,8.710000038146973,0.9400634765625,-0.2303466796875,0.02911376953125,-0.24981689453125,100570.6875,25.509016036987305,51098.0
0.6200000047683716,-4.230000019073486,8.770000457763672,-16.0625,35.875,-30.6875,38.0,2.25,-4.3125,0.5899999737739563,-4.210000038146973,8.829999923706055,0.9425048828125,-0.21826171875,0.02630615234375,-0.25177001953125,100570.671875,25.511091232299805,51138.0
0.5600000023841858,-4.239999771118164,8.920000076293945,-16.0625,35.875,-30.6875,36.4375,2.625,-4.5,0.5799999833106995,-4.0,8.930000305175781,0.94464111328125,-0.2066650390625,0.0238037109375,-0.25372314453125,100569.84375,25.510892868041992,51178.0
0.5299999713897705,-4.110000133514404,9.0,-16.0625,35.25,-32.1875,39.75,2.1875,-2.5,0.5799999833106995,-3.7699999809265137,9.029999732971191,0.94696044921875,-0.19439697265625,0.02117919921875,-0.25494384765625,100569.765625,25.511920928955078,51218.0
0.6499999761581421,-3.5999999046325684,9.010000228881836,-15.0,33.5,-32.6875,39.5,2.5,-0.3125,0.5699999928474426,-3.5199999809265137,9.130000114440918,0.949462890625,-0.18133544921875,0.01837158203125,-0.255615234375,100569.6640625,25.512100219726562,51258.0
0.5699999928474426,-3.569999933242798,9.170000076293945,-16.0625,32.75,-35.375,39.3125,3.5,1.75,0.5400000214576721,-3.2799999713897705,9.220000267028809,0.95184326171875,-0.168701171875,0.0162353515625,-0.25555419921875,100569.1953125,25.512226104736328,51298.0
0.46000000834465027,-3.3299999237060547,9.260000228881836,-14.1875,31.375,-34.5625,42.875,3.625,2.25,0.5199999809265137,-3.0299999713897705,9.300000190734863,0.954345703125,-0.15472412109375,0.013916015625,-0.25518798828125,100569.2421875,25.5123348236084,51338.0
0.3700000047683716,-2.4800000190734863,9.260000228881836,-14.1875,31.375,-34.5625,42.5,3.0625,2.875,0.5,-2.819999933242798,9.369999885559082,0.9566650390625,-0.14117431640625,0.011474609375,-0.2545166015625,100569.5859375,25.515310287475586,51378.0
0.41999998688697815,-2.7300000190734863,9.479999542236328,-15.25,29.5,-36.5625,35.6875,1.125,2.75,0.4699999988079071,-2.5299999713897705,9.460000038146973,0.95849609375,-0.12957763671875,0.0089111328125,-0.25372314453125,100569.2734375,25.516374588012695,51418.0
0.6299999952316284,-2.4600000381469727,9.449999809265137,-16.0625,28.375,-37.0,38.625,1.9375,3.3125,0.46000000834465027,-2.299999952316284,9.520000457763672,0.9603271484375,-0.11724853515625,0.00634765625,-0.25286865234375,100569.5,25.518321990966797,51458.0
0.5799999833106995,-2.059999942779541,9.539999961853027,-16.0625,27.25,-38.6875,37.25,4.0,4.0625,0.4399999976158142,-2.049999952316284,9.569999694824219,0.96209716796875,-0.10467529296875,0.00445556640625,-0.2518310546875,100569.0,25.517492294311523,51498.0
0.3499999940395355,-2.0299999713897705,9.59000015258789,-15.25,26.1875,-38.6875,36.1875,4.75,4.0,0.4099999964237213,-1.8799999952316284,9.609999656677246,0.963623046875,-0.09246826171875,0.0030517578125,-0.25067138671875,100569.1484375,25.518592834472656,51538.0
0.3199999928474426,-1.0399999618530273,9.640000343322754,-15.25,26.1875,-38.6875,40.8125,4.625,4.3125,0.3700000047683716,-1.6299999952316284,9.65999984741211,0.96514892578125,-0.0794677734375,0.0013427734375,-0.2493896484375,100568.9765625,25.519981384277344,51578.0
0.27000001072883606,-1.159999966621399,9.710000038146973,-15.0,24.75,-40.5625,28.0625,3.0625,4.6875,0.3400000035762787,-1.3700000047683716,9.699999809265137,0.9661865234375,-0.07025146484375,0.00018310546875,-0.24798583984375,100569.203125,25.522199630737305,51618.0
0.3400000035762787,-1.0499999523162842,9.75,-15.6875,23.5625,-41.375,25.25,2.375,4.4375,0.3199999928474426,-1.2000000476837158,9.720000267028809,0.96710205078125,-0.06201171875,-0.00091552734375,-0.24676513671875,100568.5625,25.519224166870117,51658.0
0.3199999928474426,-0.7400000095367432,9.800000190734863,-14.1875,22.6875,-41.375,18.5625,3.875,2.1875,0.28999999165534973,-1.0700000524520874,9.739999771118164,0.9676513671875,-0.0557861328125,-0.00103759765625,-0.24609375,100568.2265625,25.51931381225586,51698.0
0.07000000029802322,-0.9800000190734863,9.789999961853027,-15.25,22.25,-41.0,14.0,5.125,1.5625,0.27000001072883606,-1.0,9.75,0.968017578125,-0.05072021484375,-0.00054931640625,-0.24566650390625,100568.0625,25.520540237426758,51738.0
-0.25999999046325684,-0.8100000023841858,9.84000015258789,-15.25,22.25,-41.0,14.3125,3.25,-0.25,0.23999999463558197,-0.9100000262260437,9.760000228881836,0.9681396484375,-0.04595947265625,-0.00091552734375,-0.24609375,100567.8828125,25.519710540771484,51778.0
-0.1899999976158142,-0.9900000095367432,9.850000381469727,-14.875,22.1875,-42.5625,12.5,-1.8125,-5.625,0.23000000417232513,-0.800000011920929,9.770000457763672,0.96771240234375,-0.04107666015625,-0.002197265625,-0.248779296875,100567.78125,25.520252227783203,51818.0
0.05999999865889549,-0.8899999856948853,9.75,-14.5625,21.5,-42.1875,14.125,-6.625,-9.9375,0.25999999046325684,-0.7200000286102295,9.770000457763672,0.9669189453125,-0.037109375,-0.00592041015625,-0.252197265625,100566.921875,25.518936157226562,51858.0
0.4399999976158142,-0.7699999809265137,9.800000190734863,-15.25,21.0625,-42.5625,15.5625,-9.0625,-12.125,0.3199999928474426,-0.6200000047683716,9.779999732971191,0.966064453125,-0.03277587890625,-0.01019287109375,-0.25604248046875,100567.3046875,25.520252227783203,51898.0
0.6200000047683716,-0.3199999928474426,9.75,-14.1875,20.0,-42.5625,13.6875,-6.6875,-11.3125,0.3700000047683716,-0.5400000214576721,9.779999732971191,0.9654541015625,-0.03009033203125,-0.0125732421875,-0.258544921875,100567.1953125,25.520648956298828,51938.0
0.5099999904632568,-0.3799999952316284,9.829999923706055,-14.1875,20.0,-42.5625,8.8125,-4.75,-7.1875,0.4000000059604645,-0.4699999988079071,9.779999732971191,0.9649658203125,-0.02752685546875,-0.01507568359375,-0.2606201171875,100566.3984375,25.52153205871582,51978.0
0.5099999904632568,-0.1599999964237213,9.819999694824219,-15.0,19.25,-43.6875,7.125,-4.5,-3.5,0.4399999976158142,-0.4099999964237213,9.779999732971191,0.96466064453125,-0.0257568359375,-0.01715087890625,-0.2615966796875,100566.7265625,25.52508544921875,52018.0
0.75,-0.18000000715255737,9.760000228881836,-16.0625,19.25,-43.0,0.5,-3.1875,-1.5,0.46000000834465027,-0.38999998569488525,9.779999732971191,0.96453857421875,-0.02593994140625,-0.018310546875,-0.261962890625,100566.1015625,25.527753829956055,52058.0
0.699999988079071,-0.5899999737739563,9.829999923706055,-16.25,18.1875,-44.1875,-2.8125,-0.3125,0.9375,0.47999998927116394,-0.4000000059604645,9.779999732971191,0.96466064453125,-0.02679443359375,-0.0181884765625,-0.2615966796875,100566.453125,25.53089141845703,52098.0
0.6200000047683716,-0.7599999904632568,9.800000190734863,-16.25,19.25,-42.1875,-0.9375,2.125,3.1875,0.4699999988079071,-0.4099999964237213,9.779999732971191,0.9649658203125,-0.0267333984375,-0.01739501953125,-0.26055908203125,100566.46875,25.533254623413086,52138.0
0.44999998807907104,-0.800000011920929,9.84000015258789,-16.25,19.25,-42.1875,2.25,2.8125,3.4375,0.44999998807907104,-0.4099999964237213,9.779999732971191,0.96527099609375,-0.02618408203125,-0.0166015625,-0.259521484375,100566.28125,25.532154083251953,52178.0
0.6800000071525574,0.10999999940395355,9.699999809265137,-16.375,19.25,-42.5625,10.5,2.625,4.0625,0.4399999976158142,-0.3700000047683716,9.779999732971191,0.96551513671875,-0.02386474609375,-0.0162353515625,-0.25872802734375,100565.9921875,25.530729293823242,52218.0
0.3799999952316284,-0.6600000262260437,9.789999961853027,-14.875,18.1875,-43.0,5.9375,2.625,0.25,0.4099999964237213,-0.3499999940395355,9.789999961853027,0.965576171875,-0.0218505859375,-0.01593017578125,-0.2587890625,100566.0703125,25.52968406677246,52258.0
0.38999998569488525,-0.6000000238418579,9.800000190734863,-15.6875,18.875,-43.25,7.9375,1.8125,-1.4375,0.4000000059604645,-0.3100000023841858,9.789999961853027,0.9654541015625,-0.019287109375,-0.015869140625,-0.25927734375,100565.4453125,25.52831268310547,52298.0
0.3400000035762787,-0.27000001072883606,9.789999961853027,-15.6875,18.5,-43.25,7.0,2.0,-2.125,0.38999998569488525,-0.25999999046325684,9.789999961853027,0.96533203125,-0.01690673828125,-0.01580810546875,-0.2598876953125,100565.515625,25.529016494750977,52338.0
0.3400000035762787,-0.10999999940395355,9.829999923706055,-15.6875,18.5,-43.25,5.3125,1.5625,-1.1875,0.3700000047683716,-0.2199999988079071,9.789999961853027,0.96527099609375,-0.01519775390625,-0.01568603515625,-0.26025390625,100565.34375,25.528961181640625,52378.0
0.2800000011920929,-0.07000000029802322,9.84000015258789,-15.25,18.1875,-43.25,1.4375,1.125,-0.4375,0.36000001430511475,-0.20000000298023224,9.789999961853027,0.96527099609375,-0.01470947265625,-0.01556396484375,-0.26031494140625,100564.890625,25.531234741210938,52418.0
0.4000000059604645,-0.3700000047683716,9.84000015258789,-14.5625,17.5,-43.6875,-0.9375,-0.125,0.0,0.36000001430511475,-0.20000000298023224,9.789999961853027,0.96527099609375,-0.0150146484375,-0.0155029296875,-0.26025390625,100564.8984375,25.532352447509766,52458.0
0.2800000011920929,-0.3400000035762787,9.829999923706055,-14.5625,17.75,-43.6875,0.125,0.5625,1.5625,0.36000001430511475,-0.20000000298023224,9.789999961853027,0.9654541015625,-0.01519775390625,-0.01531982421875,-0.25970458984375,100564.421875,25.531469345092773,52498.0
0.30000001192092896,-0.3400000035762787,9.829999923706055,-15.6875,17.75,-43.6875,0.0,-0.375,2.6875,0.36000001430511475,-0.20999999344348907,9.789999961853027,0.9656982421875,-0.01531982421875,-0.01531982421875,-0.2587890625,100564.4140625,25.532533645629883,52538.0
0.3400000035762787,-0.3100000023841858,9.819999694824219,-15.6875,17.75,-43.6875,0.25,-1.125,2.8125,0.3700000047683716,-0.20999999344348907,9.789999961853027,0.9659423828125,-0.01556396484375,-0.01556396484375,-0.25787353515625,100564.078125,25.53274917602539,52578.0
0.33000001311302185,-0.33000001311302185,9.8100004196167,-16.375,17.5,-43.25,-0.375,-1.25,1.6875,0.3700000047683716,-0.20999999344348907,9.789999961853027,0.966064453125,-0.01580810546875,-0.0159912109375,-0.25738525390625,100563.4140625,25.531774520874023,52618.0
0.4300000071525574,-0.41999998688697815,9.770000457763672,-15.0,17.5,-44.1875,-0.25,-1.875,0.3125,0.3799999952316284,-0.2199999988079071,9.789999961853027,0.966064453125,-0.0162353515625,-0.01654052734375,-0.25732421875,100563.5078125,25.532766342163086,52658.0
0.44999998807907104,-0.3799999952316284,9.8100004196167,-15.6875,18.5,-44.875,0.125,-1.5625,-0.75,0.4000000059604645,-0.2199999988079071,9.789999961853027,0.9659423828125,-0.01654052734375,-0.01702880859375,-0.25762939453125,100563.7265625,25.533506393432617,52698.0
0.44999998807907104,-0.41999998688697815,9.829999923706055,-15.25,17.75,-43.6875,0.0,-0.5625,-0.375,0.4000000059604645,-0.2199999988079071,9.789999961853027,0.9659423828125,-0.0167236328125,-0.01708984375,-0.25762939453125,100564.0,25.533489227294922,52738.0
0.41999998688697815,-0.4399999976158142,9.829999923706055,-15.25,17.75,-43.6875,1.5625,-0.625,0.0,0.4099999964237213,-0.2199999988079071,9.789999961853027,0.9659423828125,-0.0164794921875,-0.0174560546875,-0.25762939453125,100563.9921875,25.534624099731445,52778.0
0.44999998807907104,-0.25999999046325684,9.779999732971191,-15.25,18.5,-44.5,1.8125,-0.5,0.4375,0.4099999964237213,-0.20999999344348907,9.789999961853027,0.9659423828125,-0.0159912109375,-0.01763916015625,-0.25762939453125,100563.9453125,25.534318923950195,52818.0
0.5099999904632568,-0.2199999988079071,9.819999694824219,-16.375,17.0625,-44.5,0.6875,-0.125,0.6875,0.4099999964237213,-0.20999999344348907,9.789999961853027,0.96600341796875,-0.01593017578125,-0.0177001953125,-0.25732421875,100564.0234375,25.534679412841797,52858.0
0.49000000953674316,-0.23999999463558197,9.819999694824219,-14.5625,18.1875,-44.1875,-1.0625,0.25,0.625,0.4099999964237213,-0.20999999344348907,9.789999961853027,0.966064453125,-0.016357421875,-0.0177001953125,-0.25714111328125,100564.3984375,25.534931182861328,52898.0
0.5799999833106995,-0.3700000047683716,9.850000381469727,-14.5625,18.1875,-44.1875,-1.25,0.25,1.4375,0.4099999964237213,-0.2199999988079071,9.789999961853027,0.96624755859375,-0.016845703125,-0.017578125,-0.25653076171875,100564.9296875,25.536283493041992,52938.0
0.4300000071525574,-0.2800000011920929,9.789999961853027,-14.1875,17.75,-45.25,-1.0625,2.5625,5.75,0.4000000059604645,-0.23000000417232513,9.789999961853027,0.96673583984375,-0.01702880859375,-0.0166015625,-0.25457763671875,100565.171875,25.53788948059082,52978.0
0.23999999463558197,-0.3400000035762787,9.800000190734863,-15.0,18.1875,-44.875,-0.9375,2.8125,7.25,0.3799999952316284,-0.23999999463558197,9.789999961853027,0.9674072265625,-0.01715087890625,-0.01544189453125,-0.25225830078125,100565.8359375,25.539079666137695,53018.0
0.18000000715255737,-0.3499999940395355,9.84000015258789,-15.0,17.75,-44.1875,-0.5,1.0625,4.3125,0.3700000047683716,-0.25,9.789999961853027,0.96771240234375,-0.0172119140625,-0.014892578125,-0.2510986328125,100566.1796875,25.539979934692383,53058.0
0.25999999046325684,-0.41999998688697815,9.829999923706055,-14.5625,18.5,-44.5,-0.6875,-0.9375,-1.0,0.36000001430511475,-0.25,9.789999961853027,0.967529296875,-0.017578125,-0.0150146484375,-0.2515869140625,100566.2265625,25.540647506713867,53098.0
0.3400000035762787,-0.3799999952316284,9.800000190734863,-14.5625,18.5,-44.5,-0.25,-1.0625,-3.875,0.3700000047683716,-0.25,9.789999961853027,0.9671630859375,-0.0177001953125,-0.01519775390625,-0.25299072265625,100565.7265625,25.53999900817871,53138.0
0.2800000011920929,-0.3199999928474426,9.819999694824219,-15.0,18.5,-44.5,-0.8125,-0.875,-4.3125,0.3700000047683716,-0.25999999046325684,9.789999961853027,0.966796875,-0.01812744140625,-0.01531982421875,-0.25439453125,100566.171875,25.541242599487305,53178.0
0.3400000035762787,-0.4399999976158142,9.829999923706055,-15.25,17.75,-43.6875,-0.8125,-1.4375,-3.375,0.3799999952316284,-0.27000001072883606,9.789999961853027,0.96649169921875,-0.0185546875,-0.01568603515625,-0.25543212890625,100566.75,25.54216194152832,53218.0
0.41999998688697815,-0.36000001430511475,9.779999732971191,-14.875,18.1875,-42.5625,0.875,-2.0,-2.0625,0.38999998569488525,-0.27000001072883606,9.789999961853027,0.96636962890625,-0.01849365234375,-0.01641845703125,-0.25604248046875,100566.3671875,25.541711807250977,53258.0
0.44999998807907104,-0.3499999940395355,9.84000015258789,-16.25,18.5,-43.75,1.0,-1.75,-0.8125,0.4000000059604645,-0.25999999046325684,9.789999961853027,0.96630859375,-0.01837158203125,-0.01690673828125,-0.256103515625,100565.9375,25.54079246520996,53298.0
0.4099999964237213,-0.3199999928474426,9.84000015258789,-16.25,18.5,-43.75,1.0625,-0.875,0.0,0.4099999964237213,-0.25,9.789999961853027,0.96630859375,-0.0181884765625,-0.017333984375,-0.256103515625,100566.0078125,25.541261672973633,53338.0
0.41999998688697815,-0.27000001072883606,9.800000190734863,-16.25,17.75,-43.75,0.125,-1.25,-1.0625,0.41999998688697815,-0.25,9.789999961853027,0.9661865234375,-0.01824951171875,-0.0177001953125,-0.2564697265625,100565.921875,25.541603088378906,53378.0
0.4699999988079071,-0.27000001072883606,9.770000457763672,-16.0,17.75,-44.875,-1.0,-0.875,-2.0625,0.4300000071525574,-0.25,9.789999961853027,0.96600341796875,-0.0186767578125,-0.0179443359375,-0.25714111328125,100566.1328125,25.542451858520508,53418.0
0.4699999988079071,-0.3700000047683716,9.800000190734863,-15.1875,17.75,-43.6875,-1.8125,-0.25,-1.75,0.4300000071525574,-0.25999999046325684,9.789999961853027,0.96588134765625,-0.019287109375,-0.017822265625,-0.25775146484375,100566.328125,25.543659210205078,53458.0
0.4300000071525574,-0.4300000071525574,9.8100004196167,-15.5625,18.5,-45.6875,-1.25,0.0625,-1.375,0.4300000071525574,-0.27000001072883606,9.789999961853027,0.96575927734375,-0.0196533203125,-0.0177001953125,-0.258056640625,100566.96875,25.5445613861084,53498.0
0.5099999904632568,-0.3799999952316284,9.829999923706055,-15.5625,18.5,-45.6875,-0.5625,-0.625,-0.9375,0.4300000071525574,-0.2800000011920929,9.789999961853027,0.9656982421875,-0.01983642578125,-0.01776123046875,-0.25836181640625,100566.84375,25.54755401611328,53538.0
0.44999998807907104,-0.38999998569488525,9.829999923706055,-14.875,18.875,-43.25,-0.6875,-0.3125,-0.125,0.4300000071525574,-0.2800000011920929,9.789999961853027,0.9656982421875,-0.02020263671875,-0.01776123046875,-0.25836181640625,100566.5,25.547483444213867,53578.0
0.4399999976158142,-0.4000000059604645,9.789999961853027,-14.875,17.75,-44.5,-1.1875,-0.6875,0.125,0.4399999976158142,-0.28999999165534973,9.789999961853027,0.96563720703125,-0.020751953125,-0.01788330078125,-0.25836181640625,100566.8515625,25.548006057739258,53618.0
0.5,-0.41999998688697815,9.779999732971191,-14.875,17.75,-44.5,-0.9375,-0.6875,-0.0625,0.4399999976158142,-0.30000001192092896,9.789999961853027,0.96563720703125,-0.02105712890625,-0.0179443359375,-0.25836181640625,100566.9453125,25.54782485961914,53658.0
0.49000000953674316,-0.41999998688697815,9.8100004196167,-16.0,17.75,-44.5,-0.25,0.125,0.125,0.4399999976158142,-0.30000001192092896,9.789999961853027,0.96563720703125,-0.02117919921875,-0.0179443359375,-0.25836181640625,100567.4296875,25.54883575439453,53698.0
