Accel_X,Accel_Y,Accel_Z,Magneto_X,Magneto_Y,Magneto_Z,Gyro_X,Gyro_Y,Gyro_Z,Gravity_X,Gravity_Y,Gravity_Z,Quaternion_W,Quaternion_X,Quaternion_Y,Quaternion_Z,Pressure,Temperature,Time
0.28999999165534973,1.2799999713897705,9.8100004196167,-7.6875,12.1875,-48.375,1.875,0.625,-0.4375,0.3100000023841858,1.3300000429153442,9.699999809265137,0.99609375,0.0693359375,-0.01263427734375,0.0528564453125,83064.8515625,23.358642578125,16864.0
0.28999999165534973,1.3600000143051147,9.760000228881836,-8.0625,12.1875,-48.875,1.1875,-0.1875,-0.6875,0.3100000023841858,1.340000033378601,9.699999809265137,0.99609375,0.06988525390625,-0.0125732421875,0.0526123046875,100589.703125,25.734254837036133,16904.0
0.38999998569488525,1.3600000143051147,9.760000228881836,-7.6875,12.1875,-48.0,0.25,0.625,0.1875,0.3100000023841858,1.350000023841858,9.699999809265137,0.99609375,0.06988525390625,-0.012451171875,0.0526123046875,100588.421875,25.753873825073242,16944.0
0.25,1.2699999809265137,9.789999961853027,-7.6875,12.1875,-48.375,-0.5,-0.1875,0.0,0.3100000023841858,1.350000023841858,9.699999809265137,0.99609375,0.06982421875,-0.012451171875,0.0526123046875,100586.6640625,25.784170150756836,16984.0
0.4000000059604645,1.2000000476837158,9.779999732971191,-7.6875,12.1875,-48.375,0.25,-1.0625,-0.6875,0.3199999928474426,1.340000033378601,9.699999809265137,0.99609375,0.0697021484375,-0.0128173828125,0.05242919921875,100584.890625,25.818431854248047,17024.0
0.4099999964237213,1.2999999523162842,9.770000457763672,-7.375,11.875,-48.875,1.0625,-0.5,-0.875,0.3199999928474426,1.350000023841858,9.699999809265137,0.99609375,0.0699462890625,-0.012939453125,0.0521240234375,100583.578125,25.854516983032227,17064.0
0.4399999976158142,1.3200000524520874,9.75,-8.0625,12.5625,-48.375,0.625,0.125,-0.8125,0.3199999928474426,1.350000023841858,9.699999809265137,0.99609375,0.07012939453125,-0.01300048828125,0.05181884765625,100582.3125,25.88675880432129,17104.0
0.3799999952316284,1.3200000524520874,9.779999732971191,-7.375,12.5625,-48.5,0.0625,0.1875,0.125,0.3199999928474426,1.350000023841858,9.699999809265137,0.99609375,0.070068359375,-0.01300048828125,0.05181884765625,100580.9453125,25.916728973388672,17144.0
0.3700000047683716,1.2699999809265137,9.770000457763672,-7.6875,12.1875,-48.875,0.1875,0.5,1.125,0.3199999928474426,1.350000023841858,9.699999809265137,0.99609375,0.07000732421875,-0.0130615234375,0.05206298828125,100579.609375,25.941505432128906,17184.0
0.3700000047683716,1.2999999523162842,9.760000228881836,-7.6875,12.1875,-48.875,0.75,0.3125,1.4375,0.3199999928474426,1.350000023841858,9.699999809265137,0.99609375,0.07012939453125,-0.01312255859375,0.05255126953125,100579.2265625,25.966445922851562,17224.0
0.28999999165534973,1.2999999523162842,9.75,-7.375,11.875,-49.1875,0.25,0.5,1.0,0.3199999928474426,1.350000023841858,9.699999809265137,0.99603271484375,0.070068359375,-0.0130615234375,0.05291748046875,100578.6171875,25.986299514770508,17264.0
0.3100000023841858,1.2999999523162842,9.779999732971191,-8.0625,12.1875,-48.0,0.375,-0.125,0.25,0.3199999928474426,1.350000023841858,9.699999809265137,0.99603271484375,0.070068359375,-0.01300048828125,0.05291748046875,100578.3125,26.00348472595215,17304.0
0.33000001311302185,1.3300000429153442,9.800000190734863,-6.5625,11.5,-48.375,-0.3125,-0.1875,-0.3125,0.3199999928474426,1.350000023841858,9.699999809265137,0.99603271484375,0.070068359375,-0.0130615234375,0.05291748046875,100577.515625,26.016971588134766,17344.0
0.2800000011920929,1.2999999523162842,9.770000457763672,-8.0625,12.5625,-48.375,-0.6875,-0.3125,-0.3125,0.3199999928474426,1.350000023841858,9.699999809265137,0.99609375,0.06982421875,-0.01318359375,0.05291748046875,100577.046875,26.02995491027832,17384.0
0.36000001430511475,1.2000000476837158,9.800000190734863,-8.0625,12.5625,-48.375,-1.3125,-1.0625,-0.3125,0.33000001311302185,1.340000033378601,9.699999809265137,0.99609375,0.0693359375,-0.0135498046875,0.0528564453125,100576.96875,26.04026985168457,17424.0
0.4099999964237213,1.2200000286102295,9.760000228881836,-8.75,11.5,-48.5,-0.9375,-1.0625,-0.9375,0.3400000035762787,1.3300000429153442,9.699999809265137,0.99615478515625,0.069091796875,-0.013916015625,0.05255126953125,100576.625,26.049755096435547,17464.0
0.38999998569488525,1.2100000381469727,9.760000228881836,-7.0,12.1875,-47.25,-0.3125,-0.75,-1.125,0.3400000035762787,1.3300000429153442,9.699999809265137,0.99615478515625,0.06903076171875,-0.01416015625,0.0521240234375,100576.4375,26.056859970092773,17504.0
0.41999998688697815,1.2200000286102295,9.760000228881836,-8.0625,11.5,-49.1875,0.0,-0.75,-0.5,0.3499999940395355,1.3300000429153442,9.699999809265137,0.99615478515625,0.06890869140625,-0.014404296875,0.05206298828125,100576.21875,26.06333351135254,17544.0
0.41999998688697815,1.2599999904632568,9.789999961853027,-7.6875,12.1875,-48.375,0.375,0.0625,0.1875,0.3499999940395355,1.3200000524520874,9.699999809265137,0.99615478515625,0.06878662109375,-0.01446533203125,0.05206298828125,100575.8671875,26.068201065063477,17584.0
0.27000001072883606,1.2200000286102295,9.760000228881836,-7.6875,12.1875,-48.375,0.1875,0.5,0.3125,0.3499999940395355,1.3200000524520874,9.699999809265137,0.99615478515625,0.0687255859375,-0.014404296875,0.05206298828125,100575.75,26.073575973510742,17624.0
0.2800000011920929,1.2000000476837158,9.8100004196167,-7.375,12.5625,-49.5625,0.375,-0.75,0.6875,0.3499999940395355,1.3200000524520874,9.710000038146973,0.99615478515625,0.06866455078125,-0.0147705078125,0.05224609375,100575.5859375,26.07701873779297,17664.0
0.3700000047683716,1.2899999618530273,9.800000190734863,-7.375,12.1875,-50.0,0.6875,-1.375,0.625,0.36000001430511475,1.3200000524520874,9.699999809265137,0.99615478515625,0.06890869140625,-0.0152587890625,0.05224609375,100575.5,26.079038619995117,17704.0
0.4099999964237213,1.3200000524520874,9.779999732971191,-9.1875,11.875,-49.1875,0.4375,-1.3125,-0.25,0.3700000047683716,1.3300000429153442,9.699999809265137,0.99615478515625,0.06890869140625,-0.01556396484375,0.05224609375,100574.96875,26.081707000732422,17744.0
0.44999998807907104,1.309999942779541,9.75,-8.0625,11.875,-48.875,0.0,-0.9375,-0.625,0.3700000047683716,1.3300000429153442,9.699999809265137,0.99615478515625,0.06890869140625,-0.01593017578125,0.0521240234375,100575.2734375,26.086017608642578,17784.0
0.5,1.2699999809265137,9.770000457763672,-8.0625,11.875,-48.875,-0.6875,-0.5625,-0.25,0.3799999952316284,1.3200000524520874,9.699999809265137,0.99615478515625,0.0687255859375,-0.0159912109375,0.0521240234375,100575.9375,26.088668823242188,17824.0
0.4399999976158142,1.1399999856948853,9.789999961853027,-7.6875,12.1875,-48.875,-0.75,0.125,0.625,0.3799999952316284,1.3200000524520874,9.699999809265137,0.99615478515625,0.06842041015625,-0.0159912109375,0.05218505859375,100575.5703125,26.09007453918457,17864.0
0.49000000953674316,1.149999976158142,9.770000457763672,-7.6875,12.1875,-48.875,0.5625,-0.5,-0.4375,0.3799999952316284,1.309999942779541,9.699999809265137,0.99615478515625,0.06842041015625,-0.01611328125,0.05206298828125,100575.359375,26.093446731567383,17904.0
0.5600000023841858,1.2699999809265137,9.739999771118164,-8.5,11.875,-48.375,1.5625,0.75,-1.25,0.3799999952316284,1.3200000524520874,9.699999809265137,0.99615478515625,0.06878662109375,-0.0159912109375,0.05169677734375,100575.4140625,26.096548080444336,17944.0
0.44999998807907104,1.3600000143051147,9.75,-7.6875,12.1875,-48.0,1.5,1.6875,-0.8125,0.3700000047683716,1.3300000429153442,9.699999809265137,0.99615478515625,0.0692138671875,-0.01544189453125,0.0516357421875,100575.0078125,26.10002899169922,17984.0
0.46000000834465027,1.3600000143051147,9.770000457763672,-7.6875,12.1875,-48.0,0.8125,1.75,0.4375,0.36000001430511475,1.3300000429153442,9.699999809265137,0.99615478515625,0.06939697265625,-0.014892578125,0.05181884765625,100575.0,26.102643966674805,18024.0
0.4000000059604645,1.350000023841858,9.779999732971191,-8.0625,11.1875,-48.0,0.375,2.0,1.0625,0.3499999940395355,1.340000033378601,9.699999809265137,0.99609375,0.0693359375,-0.0142822265625,0.05224609375,100575.09375,26.105762481689453,18064.0
0.38999998569488525,1.3700000047683716,9.710000038146973,-7.0,12.1875,-47.6875,-0.6875,2.1875,1.375,0.3400000035762787,1.3300000429153442,9.699999809265137,0.99609375,0.069091796875,-0.01361083984375,0.05279541015625,100574.4609375,26.10635757446289,18104.0
0.3499999940395355,1.2899999618530273,9.760000228881836,-8.0625,12.1875,-48.375,-0.9375,2.0625,1.4375,0.33000001311302185,1.3300000429153442,9.710000038146973,0.99615478515625,0.06866455078125,-0.01300048828125,0.05316162109375,100574.40625,26.107385635375977,18144.0
0.46000000834465027,1.2999999523162842,9.789999961853027,-7.375,11.875,-47.25,-1.875,1.875,-0.375,0.3199999928474426,1.3200000524520874,9.710000038146973,0.9962158203125,0.06793212890625,-0.012451171875,0.05316162109375,100574.4453125,26.10816192626953,18184.0
0.44999998807907104,1.2000000476837158,9.800000190734863,-7.375,11.875,-47.25,-1.8125,3.125,-1.125,0.30000001192092896,1.2999999523162842,9.710000038146973,0.99627685546875,0.0672607421875,-0.01153564453125,0.0528564453125,100574.28125,26.109891891479492,18224.0
0.47999998927116394,1.2400000095367432,9.789999961853027,-7.6875,12.1875,-47.6875,-1.625,4.6875,-1.1875,0.2800000011920929,1.2899999618530273,9.710000038146973,0.996337890625,0.06646728515625,-0.01019287109375,0.05255126953125,100574.2578125,26.11234474182129,18264.0
0.46000000834465027,1.0800000429153442,9.729999542236328,-7.6875,12.1875,-48.375,-2.125,6.875,-1.0625,0.23999999463558197,1.2699999809265137,9.710000038146973,0.9964599609375,0.06561279296875,-0.00830078125,0.05224609375,100574.0,26.11302947998047,18304.0
0.4099999964237213,1.2200000286102295,9.819999694824219,-7.0,12.5625,-48.0,-1.0,8.5,-2.1875,0.20000000298023224,1.2599999904632568,9.720000267028809,0.99652099609375,0.0650634765625,-0.005615234375,0.0517578125,100574.4765625,26.116437911987305,18344.0
0.28999999165534973,1.2400000095367432,9.8100004196167,-5.875,12.5625,-48.375,-0.75,9.8125,-2.5625,0.14000000059604645,1.2599999904632568,9.720000267028809,0.99658203125,0.06463623046875,-0.00238037109375,0.05108642578125,100574.375,26.11724853515625,18384.0
0.17000000178813934,1.2799999713897705,9.800000190734863,-5.875,12.5625,-48.375,-1.125,10.4375,-2.375,0.07000000029802322,1.25,9.720000267028809,0.99664306640625,0.06402587890625,0.0010986328125,0.05059814453125,100574.75,26.119016647338867,18424.0
0.11999999731779099,1.2300000190734863,9.8100004196167,-6.5625,12.5625,-48.0625,-2.1875,11.0,-1.25,0.0,1.2400000095367432,9.720000267028809,0.9967041015625,0.06304931640625,0.00482177734375,0.05047607421875,100574.6171875,26.11919593811035,18464.0
0.019999999552965164,1.2300000190734863,9.770000457763672,-5.875,11.5,-47.375,-1.875,12.75,-0.0625,-0.07000000029802322,1.2300000190734863,9.720000267028809,0.9967041015625,0.06219482421875,0.0091552734375,0.05072021484375,100575.1875,26.1204776763916,18504.0
-0.1599999964237213,1.2400000095367432,9.8100004196167,-5.875,13.0,-48.5,-2.25,13.4375,0.9375,-0.1599999964237213,1.2100000381469727,9.720000267028809,0.9967041015625,0.0611572265625,0.0135498046875,0.0513916015625,100575.1875,26.12200927734375,18544.0
-0.2199999988079071,1.25,9.8100004196167,-4.0625,13.0,-49.25,-3.6875,12.9375,1.3125,-0.23999999463558197,1.190000057220459,9.729999542236328,0.9967041015625,0.0596923828125,0.01788330078125,0.05206298828125,100575.4921875,26.124317169189453,18584.0
-0.27000001072883606,1.1799999475479126,9.819999694824219,-4.0625,13.0,-49.25,-4.5,13.4375,0.875,-0.33000001311302185,1.1699999570846558,9.729999542236328,0.9967041015625,0.05792236328125,0.02227783203125,0.05267333984375,100575.4609375,26.124317169189453,18624.0
-0.3100000023841858,1.1699999570846558,9.75,-5.6875,13.0,-49.0,-5.125,13.6875,0.3125,-0.41999998688697815,1.1299999952316284,9.729999542236328,0.99664306640625,0.055908203125,0.02679443359375,0.0531005859375,100575.3125,26.124317169189453,18664.0
-0.3199999928474426,1.0099999904632568,9.760000228881836,-4.1875,13.375,-47.6875,-5.625,15.375,-0.625,-0.5099999904632568,1.100000023841858,9.729999542236328,0.99664306640625,0.05364990234375,0.03173828125,0.0533447265625,100575.234375,26.126049041748047,18704.0
-0.3700000047683716,0.9599999785423279,9.850000381469727,-3.6875,14.0,-46.875,-6.0,16.75,-0.6875,-0.6100000143051147,1.0499999523162842,9.720000267028809,0.99658203125,0.051025390625,0.03704833984375,0.053466796875,100574.3359375,26.125038146972656,18744.0
-0.41999998688697815,0.7599999904632568,9.800000190734863,-3.6875,14.0,-46.875,-4.6875,19.0,-1.0,-0.7200000286102295,1.0099999904632568,9.720000267028809,0.9964599609375,0.04901123046875,0.04296875,0.05352783203125,100574.03125,26.126012802124023,18784.0
-0.5799999833106995,0.8799999952316284,9.720000267028809,-2.375,13.375,-49.25,-1.125,22.3125,-1.1875,-0.8500000238418579,0.9900000095367432,9.710000038146973,0.99615478515625,0.04803466796875,0.05023193359375,0.053466796875,100574.140625,26.127328872680664,18824.0
-0.8600000143051147,1.0700000524520874,9.739999771118164,-2.1875,14.0,-48.5,-3.25,24.8125,-1.5625,-1.0,0.9800000190734863,9.699999809265137,0.99578857421875,0.0465087890625,0.05841064453125,0.05340576171875,100574.140625,26.12714958190918,18864.0
-1.0800000429153442,1.0099999904632568,9.770000457763672,-0.5,13.6875,-48.875,-4.625,25.0,-2.0,-1.1699999570846558,0.949999988079071,9.680000305175781,0.995361328125,0.04437255859375,0.06683349609375,0.05316162109375,100574.7890625,26.128753662109375,18904.0
-1.25,0.9300000071525574,9.75,0.0625,13.6875,-49.0,-5.5625,25.625,-3.0625,-1.2999999523162842,0.9200000166893005,9.670000076293945,0.99493408203125,0.0418701171875,0.07525634765625,0.05242919921875,100574.3828125,26.128231048583984,18944.0
-1.3799999952316284,0.8799999952316284,9.710000038146973,0.0625,13.6875,-49.0,-5.875,25.0,-4.5625,-1.5,0.8700000047683716,9.649999618530273,0.994384765625,0.0390625,0.0836181640625,0.05133056640625,100575.2421875,26.131874084472656,18984.0
-1.440000057220459,0.7099999785423279,9.649999618530273,0.6875,14.375,-49.0625,-6.1875,27.1875,-4.125,-1.6699999570846558,0.8199999928474426,9.619999885559082,0.9937744140625,0.0362548828125,0.092529296875,0.05047607421875,100576.015625,26.13574981689453,19024.0
-1.6699999570846558,0.6899999976158142,9.640000343322754,2.375,14.0,-47.5,-5.875,29.75,-3.75,-1.8600000143051147,0.7699999809265137,9.59000015258789,0.992919921875,0.0335693359375,0.10223388671875,0.04974365234375,100576.125,26.135786056518555,19064.0
-1.9800000190734863,0.7599999904632568,9.609999656677246,3.375,14.75,-47.5625,-8.0,31.0625,-4.25,-2.049999952316284,0.7200000286102295,9.5600004196167,0.99200439453125,0.03021240234375,0.112548828125,0.04901123046875,100576.1171875,26.136381149291992,19104.0
-2.2699999809265137,0.5,9.59000015258789,3.5625,15.5,-48.0,-8.75,31.0625,-3.375,-2.2100000381469727,0.6800000071525574,9.520000457763672,0.9908447265625,0.02685546875,0.1229248046875,0.048828125,100576.21875,26.137985229492188,19144.0
-2.609999895095825,0.6700000166893005,9.5600004196167,3.5625,15.5,-48.0,-7.625,31.125,-1.4375,-2.4100000858306885,0.6200000047683716,9.479999542236328,0.98968505859375,0.0233154296875,0.13275146484375,0.04876708984375,100576.2578125,26.139753341674805,19184.0
-2.7200000286102295,0.4300000071525574,9.510000228881836,5.0625,15.1875,-47.875,-10.0625,27.3125,-2.625,-2.640000104904175,0.5400000214576721,9.420000076293945,0.988525390625,0.01934814453125,0.14178466796875,0.048583984375,100576.1796875,26.141088485717773,19224.0
-2.7200000286102295,0.3400000035762787,9.40999984741211,6.0625,15.1875,-47.375,-10.1875,27.0625,-2.3125,-2.809999942779541,0.4699999988079071,9.380000114440918,0.98724365234375,0.0152587890625,0.15069580078125,0.048583984375,100575.7734375,26.139789581298828,19264.0
-2.759999990463257,0.28999999165534973,9.380000114440918,7.875,17.0,-46.75,-10.125,29.5625,-0.6875,-2.990000009536743,0.4000000059604645,9.319999694824219,0.98577880859375,0.01129150390625,0.16046142578125,0.0491943359375,100576.0703125,26.140546798706055,19304.0
-2.9100000858306885,0.10000000149011612,9.3100004196167,8.75,16.5625,-46.5,-8.6875,32.1875,0.875,-3.130000114440918,0.3499999940395355,9.279999732971191,0.98443603515625,0.008544921875,0.16815185546875,0.04986572265625,100575.9296875,26.14168357849121,19344.0
-3.190000057220459,0.1899999976158142,9.25,8.75,16.5625,-46.5,-6.375,37.0625,1.625,-3.3399999141693115,0.30000001192092896,9.210000038146973,0.9822998046875,0.005615234375,0.1800537109375,0.05084228515625,100575.7421875,26.14310646057129,19384.0
-3.559999942779541,0.09000000357627869,9.1899995803833,11.0,17.375,-46.0625,-6.1875,38.3125,0.5625,-3.640000104904175,0.25,9.100000381469727,0.97930908203125,0.00238037109375,0.19580078125,0.0513916015625,100575.5390625,26.145343780517578,19424.0
-3.9800000190734863,0.20999999344348907,9.069999694824219,12.75,17.6875,-46.25,-5.6875,37.875,-0.3125,-3.869999885559082,0.2199999988079071,9.0,0.976806640625,-0.00054931640625,0.20782470703125,0.05157470703125,100575.6328125,26.14584732055664,19464.0
-4.289999961853027,-0.029999999329447746,9.109999656677246,13.0,17.6875,-45.375,-8.375,35.125,-1.875,-4.079999923706055,0.17000000178813934,8.90999984741211,0.974365234375,-0.00390625,0.2188720703125,0.0516357421875,100575.8125,26.146244049072266,19504.0
-4.639999866485596,-0.1599999964237213,8.960000038146973,15.0,18.375,-45.75,-6.625,31.0625,-0.875,-4.230000019073486,0.12999999523162842,8.84000015258789,0.97271728515625,-0.00579833984375,0.22613525390625,0.0517578125,100576.1640625,26.147109985351562,19544.0
-4.730000019073486,-0.10000000149011612,8.9399995803833,15.0,18.375,-45.75,-5.875,26.125,-1.9375,-4.400000095367432,0.09000000357627869,8.760000228881836,0.97064208984375,-0.0086669921875,0.2347412109375,0.0513916015625,100576.4375,26.150644302368164,19584.0
-4.739999771118164,-0.1599999964237213,8.84000015258789,16.1875,18.375,-44.6875,-4.5625,22.5,-1.9375,-4.539999961853027,0.03999999910593033,8.680000305175781,0.9688720703125,-0.01092529296875,0.24200439453125,0.0509033203125,100576.2265625,26.15271759033203,19624.0
-4.539999961853027,-0.009999999776482582,8.720000267028809,17.0,18.75,-45.0625,-3.25,19.75,-2.5625,-4.659999847412109,0.009999999776482582,8.619999885559082,0.96728515625,-0.01287841796875,0.24822998046875,0.05023193359375,100576.0390625,26.151979446411133,19664.0
-4.570000171661377,0.019999999552965164,8.720000267028809,16.375,19.5,-44.0,-4.375,21.5625,-2.0625,-4.769999980926514,-0.009999999776482582,8.5600004196167,0.965576171875,-0.01507568359375,0.25494384765625,0.0498046875,100575.8984375,26.151979446411133,19704.0
-4.789999961853027,-0.36000001430511475,8.579999923706055,18.25,19.5,-44.0625,-6.0625,22.5625,-2.75,-4.900000095367432,-0.05999999865889549,8.489999771118164,0.963623046875,-0.017578125,0.2620849609375,0.04937744140625,100576.7890625,26.15430450439453,19744.0
-5.159999847412109,-0.20000000298023224,8.609999656677246,18.25,19.5,-44.0625,-3.6875,23.375,-0.875,-5.03000020980835,-0.09000000357627869,8.40999984741211,0.9615478515625,-0.0194091796875,0.26953125,0.0491943359375,100576.875,26.156612396240234,19784.0
-5.199999809265137,-0.5099999904632568,8.460000038146973,18.5625,19.5,-43.0625,-5.25,21.8125,-2.1875,-5.159999847412109,-0.11999999731779099,8.329999923706055,0.95953369140625,-0.02154541015625,0.27655029296875,0.0489501953125,100576.8359375,26.157785415649414,19824.0
-5.559999942779541,-0.3400000035762787,8.430000305175781,19.25,19.5,-43.375,-2.4375,21.0,-0.1875,-5.28000020980835,-0.14000000059604645,8.25,0.95758056640625,-0.02276611328125,0.2830810546875,0.04901123046875,100576.5546875,26.15749740600586,19864.0
-5.460000038146973,-0.33000001311302185,8.390000343322754,20.6875,19.875,-43.375,-2.5625,17.5,-0.4375,-5.380000114440918,-0.1599999964237213,8.1899995803833,0.95587158203125,-0.0240478515625,0.28863525390625,0.04901123046875,100576.390625,26.15727996826172,19904.0
-5.409999847412109,-0.30000001192092896,8.25,20.5625,20.1875,-41.875,-2.375,16.3125,0.3125,-5.46999979019165,-0.18000000715255737,8.130000114440918,0.95428466796875,-0.0250244140625,0.29376220703125,0.04925537109375,100576.390625,26.158849716186523,19944.0
-5.489999771118164,-0.18000000715255737,8.1899995803833,20.5625,20.1875,-41.875,-3.4375,16.875,2.4375,-5.559999942779541,-0.18000000715255737,8.069999694824219,0.9525146484375,-0.0263671875,0.299072265625,0.050537109375,100575.8984375,26.15944480895996,19984.0
-5.739999771118164,-0.4000000059604645,8.149999618530273,20.5625,20.1875,-41.375,-5.0625,17.875,5.5625,-5.659999847412109,-0.20000000298023224,8.0,0.95062255859375,-0.02783203125,0.30462646484375,0.05255126953125,100575.8125,26.159894943237305,20024.0
-5.980000019073486,-0.36000001430511475,8.100000381469727,21.375,20.5,-40.875,-5.0625,15.4375,4.8125,-5.75,-0.20000000298023224,7.940000057220459,0.94891357421875,-0.0291748046875,0.30950927734375,0.0545654296875,100576.0703125,26.161392211914062,20064.0
-5.900000095367432,-0.25999999046325684,8.0600004196167,21.875,20.6875,-41.25,-5.125,14.25,5.0,-5.820000171661377,-0.20999999344348907,7.880000114440918,0.947265625,-0.03076171875,0.31390380859375,0.056396484375,100575.765625,26.16135597229004,20104.0
-6.03000020980835,-0.5299999713897705,8.020000457763672,22.0625,20.875,-40.375,-7.1875,13.375,1.1875,-5.900000095367432,-0.23999999463558197,7.820000171661377,0.94573974609375,-0.03289794921875,0.318115234375,0.05731201171875,100575.8515625,26.161914825439453,20144.0
-6.190000057220459,-0.23000000417232513,7.920000076293945,22.0625,20.875,-40.375,-2.1875,12.6875,1.625,-5.96999979019165,-0.25,7.769999980926514,0.94439697265625,-0.033935546875,0.32196044921875,0.057861328125,100575.6328125,26.161752700805664,20184.0
-6.190000057220459,-0.7400000095367432,7.920000076293945,24.0625,20.5,-39.875,-3.5625,9.875,-0.9375,-6.019999980926514,-0.27000001072883606,7.730000019073486,0.9432373046875,-0.03509521484375,0.3250732421875,0.05792236328125,100575.65625,26.162202835083008,20224.0
-6.329999923706055,-0.4000000059604645,7.929999828338623,24.375,20.5625,-40.0625,-1.625,8.3125,-1.1875,-6.070000171661377,-0.2800000011920929,7.690000057220459,0.9423828125,-0.03607177734375,0.3275146484375,0.0576171875,100575.59375,26.163122177124023,20264.0
-6.079999923706055,-0.4300000071525574,7.809999942779541,25.0625,22.75,-40.0,-0.1875,6.875,-0.0625,-6.110000133514404,-0.30000001192092896,7.659999847412109,0.941650390625,-0.0364990234375,0.32958984375,0.0574951171875,100576.1484375,26.164384841918945,20304.0
-6.230000019073486,-0.3700000047683716,7.829999923706055,23.875,22.0,-39.6875,-1.0625,5.875,0.75,-6.139999866485596,-0.30000001192092896,7.630000114440918,0.9410400390625,-0.0369873046875,0.33135986328125,0.0577392578125,100576.4296875,26.164764404296875,20344.0
-6.21999979019165,-0.5699999928474426,7.710000038146973,23.875,22.0,-39.6875,0.6875,6.125,2.125,-6.170000076293945,-0.30000001192092896,7.610000133514404,0.94036865234375,-0.03692626953125,0.33319091796875,0.05810546875,100576.0234375,26.1650333404541,20384.0
-6.449999809265137,-0.27000001072883606,7.820000171661377,25.0,21.25,-39.6875,-3.0,2.875,-0.25,-6.190000057220459,-0.30000001192092896,7.590000152587891,0.94000244140625,-0.03759765625,0.3341064453125,0.05828857421875,100575.9375,26.165250778198242,20424.0
-6.329999923706055,-0.6600000262260437,7.769999980926514,24.5625,21.25,-39.0,1.625,3.0,0.8125,-6.210000038146973,-0.30000001192092896,7.579999923706055,0.939697265625,-0.03717041015625,0.33489990234375,0.05816650390625,100575.5234375,26.163663864135742,20464.0
-6.380000114440918,-0.6200000047683716,7.760000228881836,24.5625,22.0,-38.5,3.3125,-0.0625,-0.8125,-6.210000038146973,-0.28999999165534973,7.570000171661377,0.93975830078125,-0.03631591796875,0.3349609375,0.0576171875,100575.53125,26.163644790649414,20504.0
-6.349999904632568,-0.25,7.75,24.5625,22.0,-38.5,2.625,-1.125,-0.3125,-6.210000038146973,-0.2800000011920929,7.579999923706055,0.93994140625,-0.0355224609375,0.33465576171875,0.057373046875,100575.7109375,26.16478157043457,20544.0
-6.25,-0.3199999928474426,7.769999980926514,24.0,20.875,-39.1875,0.875,-1.875,0.875,-6.199999809265137,-0.27000001072883606,7.579999923706055,0.94012451171875,-0.03521728515625,0.33404541015625,0.05755615234375,100575.953125,26.16562843322754,20584.0
-6.429999828338623,-0.25999999046325684,7.800000190734863,25.375,21.25,-39.5625,-0.5,-3.4375,0.0,-6.190000057220459,-0.27000001072883606,7.599999904632568,0.9405517578125,-0.0352783203125,0.3328857421875,0.0574951171875,100575.875,26.166837692260742,20624.0
-6.590000152587891,-0.5400000214576721,7.869999885559082,24.5625,21.25,-38.875,0.5625,-6.375,-1.5,-6.159999847412109,-0.2800000011920929,7.610000133514404,0.9412841796875,-0.03558349609375,0.33087158203125,0.05682373046875,100576.1796875,26.168333053588867,20664.0
-6.679999828338623,-0.5699999928474426,7.940000057220459,23.5625,21.5625,-40.375,1.625,-12.0625,-4.4375,-6.119999885559082,-0.28999999165534973,7.650000095367432,0.942626953125,-0.035888671875,0.32733154296875,0.05511474609375,100576.9765625,26.170028686523438,20704.0
-6.579999923706055,-0.44999998807907104,7.860000133514404,23.5625,21.5625,-40.375,2.625,-16.5,-5.875,-6.050000190734863,-0.3100000023841858,7.710000038146973,0.944580078125,-0.03582763671875,0.32196044921875,0.0531005859375,100576.4609375,26.170713424682617,20744.0
-6.289999961853027,-0.5699999928474426,7.869999885559082,23.5,21.25,-40.0625,2.4375,-23.6875,-4.625,-5.940000057220459,-0.33000001311302185,7.789999961853027,0.94720458984375,-0.03521728515625,0.31439208984375,0.0516357421875,100576.5078125,26.17123794555664,20784.0
-6.130000114440918,-0.23999999463558197,8.039999961853027,22.75,20.875,-40.0625,1.625,-26.5,-3.5625,-5.800000190734863,-0.33000001311302185,7.889999866485596,0.95013427734375,-0.03472900390625,0.3057861328125,0.0506591796875,100576.9765625,26.171056747436523,20824.0
-5.900000095367432,-0.3499999940395355,8.180000305175781,22.75,20.5625,-40.375,-1.1875,-29.75,-3.4375,-5.650000095367432,-0.3499999940395355,8.0,0.95318603515625,-0.03497314453125,0.29620361328125,0.04998779296875,100577.3125,26.173219680786133,20864.0
-5.860000133514404,-0.46000000834465027,8.289999961853027,22.375,21.5625,-40.75,-1.5625,-31.5,-3.9375,-5.519999980926514,-0.36000001430511475,8.09000015258789,0.9564208984375,-0.03558349609375,0.28564453125,0.048828125,100577.625,26.173112869262695,20904.0
-5.559999942779541,-0.4000000059604645,8.420000076293945,22.375,21.5625,-40.75,-2.875,-36.4375,-7.3125,-5.340000152587891,-0.4000000059604645,8.210000038146973,0.96002197265625,-0.03680419921875,0.27337646484375,0.04730224609375,100577.734375,26.1741943359375,20944.0
-4.960000038146973,-0.5299999713897705,8.449999809265137,21.0,20.875,-41.875,-1.8125,-37.8125,-5.8125,-5.070000171661377,-0.44999998807907104,8.369999885559082,0.9635009765625,-0.0372314453125,0.2611083984375,0.04608154296875,100577.4140625,26.17498779296875,20984.0
-4.429999828338623,-0.49000000953674316,8.550000190734863,19.0625,21.25,-41.5,-0.9375,-34.5,-4.75,-4.860000133514404,-0.4699999988079071,8.5,0.96649169921875,-0.0374755859375,0.25006103515625,0.04498291015625,100577.4375,26.175600051879883,21024.0
-4.099999904632568,-0.5899999737739563,8.619999885559082,19.0625,21.5625,-43.0625,-0.375,-27.5625,-5.0,-4.679999828338623,-0.49000000953674316,8.59000015258789,0.96875,-0.03753662109375,0.24127197265625,0.043701171875,100577.421875,26.173744201660156,21064.0
-4.260000228881836,-0.5899999737739563,8.8100004196167,16.5625,22.25,-42.0625,0.4375,-22.875,-5.0,-4.570000171661377,-0.5099999904632568,8.649999618530273,0.970703125,-0.03765869140625,0.2335205078125,0.04193115234375,100577.4765625,26.174663543701172,21104.0
-4.309999942779541,-0.550000011920929,8.899999618530273,16.5625,22.25,-42.0625,-0.125,-21.25,-7.875,-4.440000057220459,-0.5299999713897705,8.720000267028809,0.9720458984375,-0.03790283203125,0.2281494140625,0.03997802734375,100577.1875,26.175926208496094,21144.0
-4.300000190734863,-0.6700000166893005,8.90999984741211,16.0625,21.5625,-42.875,-0.125,-19.9375,-10.0,-4.28000020980835,-0.5600000023841858,8.800000190734863,0.97412109375,-0.03851318359375,0.2198486328125,0.036376953125,100576.9765625,26.17630386352539,21184.0
-4.440000057220459,-0.6200000047683716,8.970000267028809,15.375,20.875,-43.5625,0.25,-20.0625,-8.9375,-4.159999847412109,-0.5899999737739563,8.850000381469727,0.97576904296875,-0.03900146484375,0.21282958984375,0.0335693359375,100576.6796875,26.174266815185547,21224.0
-4.21999979019165,-0.7900000214576721,9.100000381469727,13.1875,21.1875,-43.5,-0.5625,-23.25,-10.125,-4.059999942779541,-0.6100000143051147,8.899999618530273,0.97747802734375,-0.0396728515625,0.2049560546875,0.030517578125,100576.3515625,26.173328399658203,21264.0
-4.210000038146973,-0.8600000143051147,9.109999656677246,13.1875,21.25,-44.75,0.6875,-25.5625,-9.875,-3.9100000858306885,-0.6399999856948853,8.960000038146973,0.97882080078125,-0.0399169921875,0.1988525390625,0.0281982421875,100576.359375,26.172607421875,21304.0
-4.300000190734863,-0.6899999976158142,9.119999885559082,13.1875,21.25,-44.75,1.5,-28.5625,-10.375,-3.759999990463257,-0.6600000262260437,9.029999732971191,0.98065185546875,-0.04010009765625,0.19012451171875,0.0250244140625,100576.2421875,26.174968719482422,21344.0
-3.880000114440918,-0.9800000190734863,9.239999771118164,12.1875,20.75,-44.25,-0.1875,-32.6875,-12.0625,-3.5299999713897705,-0.699999988079071,9.119999885559082,0.9832763671875,-0.04052734375,0.176513671875,0.0205078125,100576.5078125,26.17673683166504,21384.0
-3.369999885559082,-0.6800000071525574,9.220000267028809,11.5,21.5,-43.5,4.5625,-36.125,-11.625,-3.299999952316284,-0.699999988079071,9.199999809265137,0.9854736328125,-0.0391845703125,0.16424560546875,0.01690673828125,100576.375,26.174591064453125,21424.0
-2.940000057220459,-0.3499999940395355,9.3100004196167,9.0625,20.75,-43.375,3.875,-35.6875,-10.3125,-3.069999933242798,-0.699999988079071,9.279999732971191,0.9874267578125,-0.038818359375,0.15264892578125,0.0142822265625,100576.40625,26.17471694946289,21464.0
-2.8299999237060547,-0.5600000023841858,9.430000305175781,7.375,20.875,-44.6875,-0.1875,-33.25,-7.125,-2.9100000858306885,-0.7099999785423279,9.329999923706055,0.98870849609375,-0.03887939453125,0.14422607421875,0.012939453125,100576.46875,26.17424774169922,21504.0
-2.6600000858306885,-0.5799999833106995,9.5,7.375,20.875,-44.6875,-0.9375,-34.125,-5.625,-2.690000057220459,-0.7200000286102295,9.399999618530273,0.99029541015625,-0.03924560546875,0.13262939453125,0.0115966796875,100576.46875,26.173887252807617,21544.0
-2.319999933242798,-0.7400000095367432,9.529999732971191,6.25,21.25,-45.1875,-1.5,-35.1875,-5.0,-2.4700000286102295,-0.7400000095367432,9.460000038146973,0.9921875,-0.039794921875,0.11798095703125,0.0103759765625,100576.7578125,26.174772262573242,21584.0
-2.2100000381469727,-0.7200000286102295,9.600000381469727,4.5,21.1875,-43.875,-0.25,-34.0,-2.3125,-2.240000009536743,-0.75,9.510000228881836,0.9931640625,-0.039794921875,0.109375,0.01031494140625,100576.6796875,26.17657470703125,21624.0
-1.7899999618530273,-0.8600000143051147,9.579999923706055,2.5,20.875,-47.0625,-1.5,-34.6875,-0.875,-2.0199999809265137,-0.75,9.5600004196167,0.99432373046875,-0.0400390625,0.09783935546875,0.0103759765625,100576.765625,26.17909812927246,21664.0
-1.5199999809265137,-0.9599999785423279,9.65999984741211,1.5625,20.5,-45.875,0.3125,-31.875,-1.0625,-1.809999942779541,-0.7599999904632568,9.600000381469727,0.995361328125,-0.0396728515625,0.08721923828125,0.01055908203125,100576.5703125,26.18097496032715,21704.0
-1.3899999856948853,-0.8199999928474426,9.720000267028809,1.5625,20.5,-45.875,3.1875,-29.375,-0.875,-1.6100000143051147,-0.7400000095367432,9.640000343322754,0.9962158203125,-0.03863525390625,0.0771484375,0.01043701171875,100576.921875,26.18355369567871,21744.0
-1.350000023841858,-0.8899999856948853,9.84000015258789,0.6875,20.5,-44.6875,3.875,-28.4375,-1.375,-1.4199999570846558,-0.7200000286102295,9.670000076293945,0.9969482421875,-0.037353515625,0.0675048828125,0.0103759765625,100576.7734375,26.183752059936523,21784.0
-1.2899999618530273,-0.7599999904632568,9.75,0.0625,20.875,-45.1875,5.5,-28.5,0.625,-1.2300000190734863,-0.6899999976158142,9.699999809265137,0.99761962890625,-0.03533935546875,0.0579833984375,0.0108642578125,100576.8359375,26.184473037719727,21824.0
-1.1100000143051147,-0.5099999904632568,9.729999542236328,-2.0625,20.1875,-45.0625,6.1875,-29.4375,2.0625,-1.0399999618530273,-0.6499999761581421,9.720000267028809,0.99822998046875,-0.0330810546875,0.0482177734375,0.0118408203125,100576.7265625,26.185590744018555,21864.0
-0.8700000047683716,-0.5799999833106995,9.829999923706055,-3.1875,20.875,-44.6875,4.5625,-29.375,3.5625,-0.8500000238418579,-0.6100000143051147,9.739999771118164,0.9986572265625,-0.03131103515625,0.03839111328125,0.01336669921875,100576.9296875,26.187015533447266,21904.0
-0.5400000214576721,-0.6299999952316284,9.880000114440918,-3.1875,20.875,-44.6875,4.8125,-29.5,3.875,-0.6600000262260437,-0.5799999833106995,9.760000228881836,0.9990234375,-0.02935791015625,0.028564453125,0.01483154296875,100577.0234375,26.187501907348633,21944.0
-0.27000001072883606,-0.41999998688697815,9.8100004196167,-4.0625,20.1875,-45.875,7.4375,-27.6875,2.625,-0.4699999988079071,-0.5400000214576721,9.779999732971191,0.99932861328125,-0.02667236328125,0.01934814453125,0.01593017578125,100577.3984375,26.189016342163086,21984.0
-0.10000000149011612,-0.10000000149011612,9.760000228881836,-4.375,19.375,-44.6875,7.0625,-25.8125,3.0,-0.30000001192092896,-0.49000000953674316,9.779999732971191,0.99951171875,-0.0244140625,0.0107421875,0.0169677734375,100577.5234375,26.18784523010254,22024.0
0.14000000059604645,-0.3400000035762787,9.869999885559082,-6.25,19.375,-45.5,2.3125,-24.625,0.5,-0.12999999523162842,-0.46000000834465027,9.789999961853027,0.99957275390625,-0.02337646484375,0.00238037109375,0.01727294921875,100576.9296875,26.186960220336914,22064.0
0.3799999952316284,-0.4699999988079071,9.880000114440918,-6.875,19.0625,-45.5,2.125,-22.1875,1.25,0.019999999552965164,-0.44999998807907104,9.789999961853027,0.99957275390625,-0.02239990234375,-0.0048828125,0.0179443359375,100577.546875,26.189197540283203,22104.0
0.46000000834465027,-0.3199999928474426,9.819999694824219,-6.875,19.0625,-45.5,4.625,-17.8125,5.0625,0.15000000596046448,-0.41999998688697815,9.789999961853027,0.99951171875,-0.02069091796875,-0.0111083984375,0.01995849609375,100577.4375,26.190279006958008,22144.0
0.6100000143051147,-0.2800000011920929,9.859999656677246,-8.0,18.6875,-45.5,4.1875,-13.625,6.5625,0.25999999046325684,-0.38999998569488525,9.789999961853027,0.99945068359375,-0.01904296875,-0.0162353515625,0.02227783203125,100577.453125,26.192262649536133,22184.0
0.6899999976158142,-0.3100000023841858,9.84000015258789,-9.0625,19.375,-45.875,2.875,-8.3125,6.3125,0.3400000035762787,-0.36000001430511475,9.789999961853027,0.99932861328125,-0.017822265625,-0.01959228515625,0.02435302734375,100577.65625,26.19258689880371,22224.0
0.7099999785423279,-0.3700000047683716,9.859999656677246,-8.5625,18.6875,-45.5,3.6875,-3.625,4.5625,0.38999998569488525,-0.3400000035762787,9.789999961853027,0.99932861328125,-0.0166015625,-0.0211181640625,0.02581787109375,100577.703125,26.192262649536133,22264.0
0.38999998569488525,-0.10000000149011612,9.930000305175781,-8.5625,18.6875,-45.1875,0.125,-3.125,1.625,0.4099999964237213,-0.33000001311302185,9.789999961853027,0.999267578125,-0.0164794921875,-0.02215576171875,0.0262451171875,100577.6015625,26.19200897216797,22304.0
0.36000001430511475,-0.23999999463558197,9.890000343322754,-8.5625,18.6875,-45.1875,-0.6875,-2.9375,0.3125,0.4300000071525574,-0.33000001311302185,9.789999961853027,0.999267578125,-0.01654052734375,-0.0230712890625,0.02630615234375,100577.96875,26.194120407104492,22344.0
0.3100000023841858,-0.25999999046325684,9.869999885559082,-9.75,19.0625,-46.6875,-0.4375,-2.6875,0.375,0.44999998807907104,-0.33000001311302185,9.789999961853027,0.99920654296875,-0.01641845703125,-0.02386474609375,0.02630615234375,100577.6875,26.193416595458984,22384.0
0.2800000011920929,-0.20000000298023224,9.890000343322754,-9.25,18.6875,-44.6875,-1.0625,-3.5625,-0.0625,0.46000000834465027,-0.33000001311302185,9.779999732971191,0.99920654296875,-0.01666259765625,-0.0247802734375,0.02630615234375,100578.1875,26.19518280029297,22424.0
0.2199999988079071,-0.27000001072883606,9.899999618530273,-9.6875,18.6875,-45.25,-2.5625,-4.4375,0.4375,0.47999998927116394,-0.3400000035762787,9.779999732971191,0.9991455078125,-0.0174560546875,-0.0260009765625,0.02630615234375,100577.625,26.195363998413086,22464.0
0.25999999046325684,-0.4000000059604645,9.90999984741211,-9.6875,18.6875,-45.25,-2.0625,-6.375,0.25,0.5099999904632568,-0.36000001430511475,9.779999732971191,0.99908447265625,-0.01806640625,-0.02789306640625,0.0263671875,100577.8828125,26.197221755981445,22504.0
0.30000001192092896,-0.3799999952316284,9.859999656677246,-8.875,18.25,-46.0,-1.6875,-8.5,-0.4375,0.5600000023841858,-0.3700000047683716,9.779999732971191,0.9990234375,-0.0185546875,-0.03045654296875,0.0262451171875,100578.03125,26.198610305786133,22544.0
0.4000000059604645,-0.4300000071525574,9.829999923706055,-9.25,19.0625,-45.5625,-0.625,-10.25,-0.875,0.6100000143051147,-0.3799999952316284,9.770000457763672,0.9989013671875,-0.0186767578125,-0.03363037109375,0.0260009765625,100578.2265625,26.199655532836914,22584.0
0.3400000035762787,-0.33000001311302185,9.880000114440918,-9.6875,19.375,-44.6875,-0.4375,-11.6875,-1.3125,0.6800000071525574,-0.3799999952316284,9.770000457763672,0.998779296875,-0.0186767578125,-0.037109375,0.025634765625,100577.90625,26.19814109802246,22624.0
0.28999999165534973,-0.41999998688697815,9.930000305175781,-10.6875,18.6875,-45.5,-1.5625,-14.9375,-1.5,0.75,-0.3799999952316284,9.760000228881836,0.9986572265625,-0.01898193359375,-0.04156494140625,0.02520751953125,100577.671875,26.19698715209961,22664.0
0.3400000035762787,-0.36000001430511475,9.829999923706055,-10.6875,18.6875,-45.5,-1.0625,-19.5,-1.9375,0.8500000238418579,-0.38999998569488525,9.760000228881836,0.9984130859375,-0.01898193359375,-0.0474853515625,0.02471923828125,100577.8125,26.19844627380371,22704.0
0.4699999988079071,-0.3400000035762787,9.819999694824219,-11.0625,19.0625,-45.25,-0.9375,-26.5625,-2.0625,0.9900000095367432,-0.38999998569488525,9.739999771118164,0.99798583984375,-0.01885986328125,-0.05499267578125,0.024169921875,100577.9765625,26.19952964782715,22744.0
0.44999998807907104,-0.2800000011920929,9.770000457763672,-11.5,19.0625,-44.75,-2.5,-34.375,-2.375,1.149999976158142,-0.38999998569488525,9.729999542236328,0.9974365234375,-0.01922607421875,-0.06451416015625,0.02362060546875,100578.328125,26.20093536376953,22784.0
0.3100000023841858,-0.5199999809265137,9.869999885559082,-12.875,19.75,-44.25,-1.1875,-45.5,-0.3125,1.3600000143051147,-0.4099999964237213,9.699999809265137,0.9964599609375,-0.01953125,-0.078369140625,0.0235595703125,100578.6953125,26.201980590820312,22824.0
1.25,-0.30000001192092896,9.600000381469727,-14.0,19.0625,-43.6875,0.0,-49.8125,-1.0625,1.600000023841858,-0.4099999964237213,9.65999984741211,0.99493408203125,-0.01904296875,-0.09576416015625,0.0238037109375,100578.25,26.201025009155273,22864.0
2.0299999713897705,-0.3499999940395355,9.319999694824219,-14.0,19.0625,-43.6875,2.0,-52.8125,0.25,1.940000057220459,-0.4099999964237213,9.600000381469727,0.9930419921875,-0.01776123046875,-0.1138916015625,0.02398681640625,100577.8046875,26.2026309967041,22904.0
2.8499999046325684,-0.3400000035762787,9.329999923706055,-16.5,18.25,-42.5,0.3125,-54.9375,-1.9375,2.380000114440918,-0.38999998569488525,9.5,0.99078369140625,-0.01702880859375,-0.132080078125,0.023681640625,100578.2890625,26.204397201538086,22944.0
3.319999933242798,-0.3799999952316284,9.239999771118164,-18.5,19.375,-43.5625,2.125,-49.0625,-1.375,2.7100000381469727,-0.3799999952316284,9.40999984741211,0.988525390625,-0.01580810546875,-0.148193359375,0.023681640625,100577.9609375,26.2022705078125,22984.0
3.640000104904175,-0.28999999165534973,9.140000343322754,-20.1875,18.25,-42.5,3.25,-43.75,-0.125,3.0,-0.36000001430511475,9.319999694824219,0.98638916015625,-0.0145263671875,-0.16180419921875,0.0242919921875,100577.8359375,26.202972412109375,23024.0
3.700000047683716,-0.23999999463558197,9.119999885559082,-23.375,18.6875,-40.875,1.125,-37.25,1.9375,3.180000066757202,-0.3499999940395355,9.260000228881836,0.9847412109375,-0.01397705078125,-0.1715087890625,0.02484130859375,100578.125,26.2017822265625,23064.0
3.930000066757202,-0.3400000035762787,9.0600004196167,-23.375,18.6875,-40.875,0.3125,-33.3125,0.1875,3.4200000762939453,-0.3499999940395355,9.180000305175781,0.98260498046875,-0.01348876953125,-0.18341064453125,0.02496337890625,100577.484375,26.203189849853516,23104.0
3.930000066757202,-0.4000000059604645,8.899999618530273,-23.0,18.6875,-41.1875,2.1875,-30.4375,2.125,3.6700000762939453,-0.3400000035762787,9.079999923706055,0.98016357421875,-0.0123291015625,-0.1959228515625,0.0260009765625,100577.8046875,26.204830169677734,23144.0
3.930000066757202,-0.18000000715255737,8.899999618530273,-24.5,18.0,-39.5625,2.75,-29.5,0.75,3.8499999046325684,-0.3199999928474426,9.010000228881836,0.97821044921875,-0.01116943359375,-0.205810546875,0.026123046875,100577.8046875,26.202594757080078,23184.0
3.7699999809265137,-0.10999999940395355,8.890000343322754,-25.875,18.0,-39.0625,1.5625,-30.3125,-0.375,3.9800000190734863,-0.3100000023841858,8.949999809265137,0.9759521484375,-0.01031494140625,-0.21600341796875,0.026611328125,100577.7734375,26.201494216918945,23224.0
3.8499999046325684,-0.18000000715255737,8.789999961853027,-27.0625,18.0,-39.1875,0.4375,-33.5625,0.625,4.170000076293945,-0.30000001192092896,8.859999656677246,0.97412109375,-0.0098876953125,-0.224365234375,0.026611328125,100578.28125,26.201242446899414,23264.0
4.230000019073486,-0.05999999865889549,8.600000381469727,-27.0625,18.0,-39.1875,-0.3125,-39.1875,-3.1875,4.389999866485596,-0.30000001192092896,8.760000228881836,0.9710693359375,-0.0093994140625,-0.23724365234375,0.02569580078125,100578.5703125,26.204505920410156,23304.0
4.360000133514404,-0.2199999988079071,8.59000015258789,-27.375,18.25,-37.75,-0.4375,-38.75,-3.25,4.619999885559082,-0.28999999165534973,8.640000343322754,0.96783447265625,-0.0086669921875,-0.250244140625,0.02471923828125,100579.078125,26.205821990966797,23344.0
4.840000152587891,-0.11999999731779099,8.300000190734863,-29.5625,18.25,-36.0625,1.1875,-41.125,-5.5625,4.860000133514404,-0.27000001072883606,8.510000228881836,0.96429443359375,-0.00750732421875,-0.263671875,0.0230712890625,100579.1484375,26.206796646118164,23384.0
5.25,0.11999999731779099,8.130000114440918,-31.5,17.5625,-37.0,-0.4375,-41.375,-6.125,5.099999904632568,-0.25,8.369999885559082,0.9605712890625,-0.0069580078125,-0.2772216796875,0.02117919921875,100579.0078125,26.207534790039062,23424.0
5.650000095367432,-0.07000000029802322,8.09000015258789,-32.0625,17.5625,-34.25,-3.3125,-39.75,-4.5,5.329999923706055,-0.23999999463558197,8.220000267028809,0.956787109375,-0.00732421875,-0.2900390625,0.01959228515625,100578.625,26.20692253112793,23464.0
5.550000190734863,-0.2199999988079071,7.849999904632568,-32.0625,17.5625,-34.25,-2.8125,-37.0,-1.0,5.539999961853027,-0.25,8.079999923706055,0.95306396484375,-0.0078125,-0.302001953125,0.0191650390625,100578.703125,26.205894470214844,23504.0
5.5,-0.15000000596046448,7.699999809265137,-33.375,16.875,-34.875,-1.875,-37.0625,1.1875,5.739999771118164,-0.25999999046325684,7.940000057220459,0.94915771484375,-0.00823974609375,-0.3140869140625,0.0194091796875,100578.65625,26.20454216003418,23544.0
5.710000038146973,-0.12999999523162842,7.550000190734863,-35.0625,17.25,-33.5625,-3.1875,-40.0,1.125,5.940000057220459,-0.2800000011920929,7.789999961853027,0.94482421875,-0.0089111328125,-0.32684326171875,0.0194091796875,100578.4765625,26.20295524597168,23584.0
6.150000095367432,-0.25999999046325684,7.449999809265137,-36.375,17.1875,-32.0625,-2.5625,-42.375,0.0,6.159999847412109,-0.28999999165534973,7.619999885559082,0.94012451171875,-0.00946044921875,-0.3402099609375,0.01922607421875,100579.140625,26.202342987060547,23624.0
6.880000114440918,-0.05999999865889549,7.190000057220459,-36.375,17.5,-30.1875,-1.9375,-43.0625,0.0625,6.369999885559082,-0.30000001192092896,7.440000057220459,0.93524169921875,-0.01007080078125,-0.353271484375,0.01910400390625,100579.65625,26.202449798583984,23664.0
6.659999847412109,-0.019999999552965164,6.949999809265137,-36.375,17.5,-30.1875,-4.4375,-41.0625,0.9375,6.570000171661377,-0.33000001311302185,7.260000228881836,0.93017578125,-0.01116943359375,-0.366455078125,0.018798828125,100579.3984375,26.20311737060547,23704.0
7.179999828338623,0.10000000149011612,6.769999980926514,-38.0,18.25,-29.75,-7.75,-41.75,-1.25,6.78000020980835,-0.3499999940395355,7.070000171661377,0.92498779296875,-0.01336669921875,-0.37939453125,0.01751708984375,100579.4921875,26.204776763916016,23744.0
7.21999979019165,-0.10000000149011612,6.659999847412109,-39.25,17.5,-28.5625,-11.6875,-38.25,-1.125,6.960000038146973,-0.38999998569488525,6.880000114440918,0.91998291015625,-0.0167236328125,-0.391357421875,0.01593017578125,100579.3125,26.20427131652832,23784.0
7.579999923706055,-0.2800000011920929,6.550000190734863,-40.5,17.1875,-27.1875,-12.5,-36.5625,0.8125,7.139999866485596,-0.44999998807907104,6.699999809265137,0.9150390625,-0.0205078125,-0.40252685546875,0.01434326171875,100579.5,26.20448875427246,23824.0
7.820000171661377,-0.550000011920929,6.300000190734863,-40.375,18.5625,-26.0,-11.9375,-33.125,0.0625,7.289999961853027,-0.5,6.53000020980835,0.91058349609375,-0.0240478515625,-0.412353515625,0.012939453125,100579.5703125,26.204055786132812,23864.0
7.78000020980835,-0.699999988079071,6.199999809265137,-40.375,18.5625,-26.0,-10.4375,-26.375,0.0,7.409999847412109,-0.550000011920929,6.389999866485596,0.90673828125,-0.0272216796875,-0.420654296875,0.01171875,100579.84375,26.20547866821289,23904.0
7.71999979019165,-0.75,6.090000152587891,-40.25,17.875,-24.375,-6.375,-22.3125,-1.5625,7.519999980926514,-0.5899999737739563,6.25,0.90338134765625,-0.029052734375,-0.427734375,0.0107421875,100579.859375,26.20654296875,23944.0
7.710000038146973,-0.8700000047683716,6.050000190734863,-40.5625,19.25,-23.0625,-4.5,-18.875,0.125,7.610000133514404,-0.6100000143051147,6.150000095367432,0.9005126953125,-0.03033447265625,-0.43365478515625,0.010498046875,100580.25,26.2084903717041,23984.0
7.630000114440918,-0.4399999976158142,5.929999828338623,-43.5,17.875,-21.875,1.3125,-18.3125,-1.9375,7.690000057220459,-0.6100000143051147,6.050000190734863,0.8978271484375,-0.02972412109375,-0.439208984375,0.01055908203125,100579.84375,26.208219528198242,24024.0
7.579999923706055,-0.5600000023841858,5.849999904632568,-42.75,17.5,-22.25,0.6875,-17.5625,0.375,7.760000228881836,-0.6100000143051147,5.949999809265137,0.8951416015625,-0.029296875,-0.4447021484375,0.01092529296875,100579.3203125,26.20802116394043,24064.0
8.130000114440918,-0.3799999952316284,5.769999980926514,-42.75,17.5,-22.25,2.6875,-18.9375,-1.75,7.829999923706055,-0.5899999737739563,5.860000133514404,0.89239501953125,-0.02813720703125,-0.45025634765625,0.0108642578125,100579.46875,26.20787811279297,24104.0
8.069999694824219,-0.3499999940395355,5.690000057220459,-43.875,18.5,-20.375,0.8125,-16.0,-1.8125,7.900000095367432,-0.5799999833106995,5.769999980926514,0.88983154296875,-0.0274658203125,-0.455322265625,0.01043701171875,100579.390625,26.208906173706055,24144.0
8.449999809265137,-0.46000000834465027,5.570000171661377,-44.25,18.0625,-20.875,0.5625,-13.6875,-0.75,7.960000038146973,-0.5600000023841858,5.679999828338623,0.88787841796875,-0.02734375,-0.45916748046875,0.010498046875,100579.0234375,26.209121704101562,24184.0
8.369999885559082,-0.4000000059604645,5.550000190734863,-43.5,17.75,-20.1875,0.5625,-8.3125,0.3125,8.010000228881836,-0.5600000023841858,5.619999885559082,0.88641357421875,-0.02685546875,-0.4620361328125,0.01055908203125,100579.234375,26.209842681884766,24224.0
8.229999542236328,-0.25,5.539999961853027,-43.0625,18.875,-19.25,0.75,-3.8125,0.375,8.029999732971191,-0.550000011920929,5.590000152587891,0.8856201171875,-0.026123046875,-0.46356201171875,0.01055908203125,100579.390625,26.211538314819336,24264.0
8.300000190734863,-0.36000001430511475,5.480000019073486,-43.0625,18.875,-19.25,0.6875,-0.8125,2.0,8.050000190734863,-0.550000011920929,5.570000171661377,0.8853759765625,-0.02587890625,-0.46405029296875,0.0111083984375,100579.6171875,26.212242126464844,24304.0
8.170000076293945,-0.2199999988079071,5.440000057220459,-44.5625,18.0625,-19.6875,0.6875,1.5,2.8125,8.050000190734863,-0.550000011920929,5.570000171661377,0.88543701171875,-0.025634765625,-0.4638671875,0.01177978515625,100579.8984375,26.212764739990234,24344.0
8.119999885559082,-0.3799999952316284,5.53000020980835,-44.875,17.75,-19.25,-0.4375,1.625,3.6875,8.039999961853027,-0.550000011920929,5.570000171661377,0.88568115234375,-0.02606201171875,-0.46343994140625,0.0128173828125,100580.1171875,26.212583541870117,24384.0
8.229999542236328,-0.6299999952316284,5.550000190734863,-44.5,17.75,-19.0,1.0,4.625,5.1875,8.029999732971191,-0.5799999833106995,5.590000152587891,0.8863525390625,-0.02630615234375,-0.46209716796875,0.0145263671875,100579.90625,26.213016510009766,24424.0
8.010000228881836,-0.2800000011920929,5.519999980926514,-44.5,17.75,-19.0,2.75,5.1875,4.5625,8.010000228881836,-0.5899999737739563,5.610000133514404,0.8870849609375,-0.02630615234375,-0.4605712890625,0.01611328125,100579.890625,26.215089797973633,24464.0
8.039999961853027,-0.5400000214576721,5.519999980926514,-44.5625,18.5,-20.1875,1.75,6.5,4.1875,7.989999771118164,-0.6100000143051147,5.639999866485596,0.88800048828125,-0.0263671875,-0.458740234375,0.01739501953125,100580.4453125,26.218355178833008,24504.0
8.09000015258789,-0.5,5.53000020980835,-43.75,18.0625,-19.75,0.5625,7.1875,2.25,7.960000038146973,-0.6100000143051147,5.679999828338623,0.88916015625,-0.02667236328125,-0.4564208984375,0.01806640625,100579.796875,26.217363357543945,24544.0
8.600000381469727,-0.6100000143051147,5.590000152587891,-43.375,18.875,-20.5625,0.4375,13.5,4.25,7.920000076293945,-0.6299999952316284,5.730000019073486,0.891357421875,-0.02728271484375,-0.4521484375,0.0191650390625,100579.4609375,26.217182159423828,24584.0
8.920000076293945,-0.6200000047683716,5.619999885559082,-43.375,18.5,-21.75,1.125,18.625,3.25,7.849999904632568,-0.6499999761581421,5.829999923706055,0.89483642578125,-0.02764892578125,-0.44512939453125,0.02020263671875,100578.7734375,26.215883255004883,24624.0
8.979999542236328,-0.699999988079071,5.71999979019165,-43.375,18.5,-21.75,1.625,30.6875,4.6875,7.760000228881836,-0.6600000262260437,5.940000057220459,0.8990478515625,-0.02813720703125,-0.4364013671875,0.02130126953125,100579.0,26.217235565185547,24664.0
9.119999885559082,-0.7099999785423279,5.860000133514404,-43.0,19.1875,-21.0,3.0,46.6875,5.9375,7.619999885559082,-0.6800000071525574,6.130000114440918,0.90411376953125,-0.0283203125,-0.42572021484375,0.02301025390625,100579.3203125,26.218822479248047,24704.0
8.369999885559082,-0.5799999833106995,6.039999961853027,-42.0,18.875,-23.0,1.5,61.9375,8.625,7.400000095367432,-0.7099999785423279,6.380000114440918,0.91290283203125,-0.0294189453125,-0.40631103515625,0.0252685546875,100579.34375,26.21885871887207,24744.0
7.420000076293945,-0.9300000071525574,6.309999942779541,-42.0,19.5625,-24.0625,6.1875,67.9375,7.9375,7.099999904632568,-0.7300000190734863,6.710000038146973,0.9219970703125,-0.02911376953125,-0.38507080078125,0.0279541015625,100578.9609375,26.219453811645508,24784.0
6.820000171661377,-0.5699999928474426,6.659999847412109,-39.375,20.0,-26.75,7.375,68.1875,8.3125,6.860000133514404,-0.7300000190734863,6.960000038146973,0.9306640625,-0.0286865234375,-0.36346435546875,0.0306396484375,100578.46875,26.21759605407715,24824.0
6.260000228881836,-0.5099999904632568,7.010000228881836,-39.375,20.0,-26.75,5.25,68.625,8.375,6.53000020980835,-0.7400000095367432,7.269999980926514,0.93670654296875,-0.02862548828125,-0.34735107421875,0.0325927734375,100578.546875,26.2208251953125,24864.0
5.570000171661377,-0.6299999952316284,7.429999828338623,-37.25,19.1875,-29.1875,5.4375,63.75,6.5,6.110000133514404,-0.7400000095367432,7.619999885559082,0.945556640625,-0.02813720703125,-0.322265625,0.03509521484375,100578.53125,26.223817825317383,24904.0
5.079999923706055,-0.30000001192092896,7.590000152587891,-34.75,20.6875,-31.25,4.5625,59.6875,6.375,5.789999961853027,-0.7400000095367432,7.869999885559082,0.95159912109375,-0.02862548828125,-0.3037109375,0.036865234375,100578.15625,26.22145652770996,24944.0
4.449999809265137,-0.4699999988079071,7.940000057220459,-34.75,19.6875,-32.5625,-0.0625,53.1875,4.625,5.5,-0.7599999904632568,8.069999694824219,0.95648193359375,-0.0299072265625,-0.28778076171875,0.03759765625,100577.640625,26.2208251953125,24984.0
4.659999847412109,-0.699999988079071,8.199999809265137,-31.375,20.6875,-34.375,-0.9375,44.125,5.0,5.309999942779541,-0.7699999809265137,8.199999809265137,0.95953369140625,-0.03094482421875,-0.2772216796875,0.03857421875,100577.1484375,26.220355987548828,25024.0
4.880000114440918,-0.75,8.3100004196167,-31.375,20.6875,-34.375,-0.75,40.75,4.5625,5.070000171661377,-0.800000011920929,8.350000381469727,0.9632568359375,-0.0322265625,-0.26373291015625,0.03955078125,100577.203125,26.222898483276367,25064.0
4.920000076293945,-0.9300000071525574,8.40999984741211,-30.6875,20.75,-34.875,-0.75,45.25,4.8125,4.760000228881836,-0.8199999928474426,8.529999732971191,0.96807861328125,-0.0335693359375,-0.2449951171875,0.04071044921875,100577.34375,26.22479248046875,25104.0
4.460000038146973,-1.100000023841858,8.609999656677246,-29.0625,21.0625,-37.25,1.3125,46.8125,2.4375,4.480000019073486,-0.8299999833106995,8.670000076293945,0.97186279296875,-0.03338623046875,-0.22955322265625,0.04095458984375,100577.0625,26.223907470703125,25144.0
4.159999847412109,-0.9100000262260437,8.729999542236328,-27.375,20.75,-37.25,5.0625,47.75,1.0625,4.269999980926514,-0.8100000023841858,8.779999732971191,0.97552490234375,-0.03240966796875,-0.21343994140625,0.041259765625,100577.53125,26.224990844726562,25184.0
3.869999885559082,-0.8600000143051147,8.859999656677246,-25.375,20.75,-39.75,5.4375,50.75,2.5,3.9800000190734863,-0.7799999713897705,8.920000076293945,0.978271484375,-0.03167724609375,-0.20068359375,0.04180908203125,100577.0,26.223474502563477,25224.0
3.3499999046325684,-0.7300000190734863,8.989999771118164,-25.375,20.75,-39.75,6.625,51.6875,2.875,3.6600000858306885,-0.75,9.0600004196167,0.98162841796875,-0.03045654296875,-0.18353271484375,0.0426025390625,100576.875,26.224069595336914,25264.0
2.9600000381469727,-0.75,9.130000114440918,-24.5,20.75,-40.0625,7.125,50.4375,2.0625,3.3499999046325684,-0.7200000286102295,9.180000305175781,0.98529052734375,-0.0283203125,-0.1627197265625,0.0433349609375,100576.875,26.226829528808594,25304.0
2.759999990463257,-0.5600000023841858,9.220000267028809,-23.375,21.1875,-41.25,8.75,47.375,1.3125,3.0399999618530273,-0.6700000166893005,9.289999961853027,0.98724365234375,-0.0267333984375,-0.15093994140625,0.04351806640625,100577.1484375,26.226016998291016,25344.0
2.4100000858306885,-0.5099999904632568,9.329999923706055,-18.875,21.0625,-41.5625,6.8125,45.8125,0.75,2.75,-0.6200000047683716,9.390000343322754,0.989501953125,-0.0252685546875,-0.135498046875,0.0439453125,100577.015625,26.225982666015625,25384.0
2.059999942779541,-0.3499999940395355,9.40999984741211,-17.75,20.0,-43.0,5.0,44.9375,4.8125,2.4600000381469727,-0.5899999737739563,9.470000267028809,0.99139404296875,-0.024658203125,-0.12054443359375,0.045166015625,100576.71875,26.225387573242188,25424.0
1.909999966621399,-0.5699999928474426,9.489999771118164,-17.75,20.0,-43.0,2.6875,41.6875,2.875,2.180000066757202,-0.5699999928474426,9.539999961853027,0.992919921875,-0.0245361328125,-0.10638427734375,0.046142578125,100576.6796875,26.228397369384766,25464.0
1.5299999713897705,-0.7300000190734863,9.579999923706055,-17.75,20.6875,-44.25,3.6875,40.8125,6.25,1.909999966621399,-0.5600000023841858,9.600000381469727,0.9942626953125,-0.024169921875,-0.09271240234375,0.04791259765625,100576.6328125,26.22892189025879,25504.0
1.3799999952316284,-0.7400000095367432,9.619999885559082,-14.5,20.6875,-44.5625,5.6875,38.125,3.4375,1.649999976158142,-0.5400000214576721,9.640000343322754,0.995361328125,-0.02288818359375,-0.0797119140625,0.04888916015625,100576.921875,26.228740692138672,25544.0
0.8299999833106995,-0.7200000286102295,9.720000267028809,-13.0625,20.0,-45.375,7.8125,35.4375,1.4375,1.409999966621399,-0.49000000953674316,9.6899995803833,0.99627685546875,-0.02069091796875,-0.06787109375,0.0491943359375,100576.6640625,26.22974967956543,25584.0
0.8600000143051147,-0.46000000834465027,9.729999542236328,-12.25,21.875,-45.75,7.4375,31.75,0.375,1.190000057220459,-0.4399999976158142,9.720000267028809,0.99700927734375,-0.0185546875,-0.05694580078125,0.04913330078125,100576.125,26.22879409790039,25624.0
0.5899999737739563,-0.3499999940395355,9.880000114440918,-12.25,21.875,-45.75,7.1875,28.75,-0.75,0.9900000095367432,-0.38999998569488525,9.739999771118164,0.99755859375,-0.0164794921875,-0.04705810546875,0.048828125,100576.3515625,26.229209899902344,25664.0
0.6299999952316284,-0.11999999731779099,9.779999732971191,-10.875,20.375,-46.0625,5.125,27.25,-1.75,0.8100000023841858,-0.3400000035762787,9.760000228881836,0.998046875,-0.01495361328125,-0.03759765625,0.048095703125,100576.28125,26.22895622253418,25704.0
0.44999998807907104,-0.33000001311302185,9.850000381469727,-9.375,20.0,-45.6875,1.6875,25.125,-3.4375,0.6299999952316284,-0.3199999928474426,9.779999732971191,0.99835205078125,-0.0147705078125,-0.02911376953125,0.04681396484375,100576.359375,26.22991180419922,25744.0
0.10999999940395355,-0.2800000011920929,9.829999923706055,-8.25,20.0,-46.6875,1.125,24.1875,-2.6875,0.4699999988079071,-0.3100000023841858,9.789999961853027,0.99859619140625,-0.014892578125,-0.02093505859375,0.04583740234375,100576.4609375,26.229480743408203,25784.0
0.009999999776482582,-0.49000000953674316,9.890000343322754,-7.5625,19.5625,-45.5,-0.125,20.375,-3.125,0.3199999928474426,-0.3100000023841858,9.789999961853027,0.998779296875,-0.0152587890625,-0.01397705078125,0.0445556640625,100576.46875,26.229732513427734,25824.0
-0.25999999046325684,-0.6299999952316284,9.920000076293945,-7.5625,19.5625,-45.5,2.125,17.5,-4.625,0.1899999976158142,-0.3100000023841858,9.789999961853027,0.99896240234375,-0.015380859375,-0.00732421875,0.04290771484375,100576.1796875,26.230506896972656,25864.0
-0.44999998807907104,-0.4699999988079071,9.960000038146973,-6.375,19.0625,-46.25,4.0625,13.125,-5.6875,0.07999999821186066,-0.28999999165534973,9.800000190734863,0.99908447265625,-0.01416015625,-0.00311279296875,0.04083251953125,100575.8515625,26.2310848236084,25904.0
-0.3400000035762787,-0.23999999463558197,9.899999618530273,-6.5625,19.875,-46.6875,4.4375,7.75,-7.3125,0.009999999776482582,-0.25999999046325684,9.800000190734863,0.99920654296875,-0.012939453125,0.000244140625,0.03826904296875,100575.515625,26.230939865112305,25944.0
-0.17000000178813934,-0.18000000715255737,9.899999618530273,-6.25,18.75,-48.1875,2.5625,6.25,-8.875,-0.029999999329447746,-0.23999999463558197,9.800000190734863,0.99932861328125,-0.01220703125,0.00244140625,0.0352783203125,100576.0390625,26.23198699951172,25984.0
-0.07000000029802322,-0.20999999344348907,9.90999984741211,-6.6875,18.875,-46.5625,0.8125,4.9375,-8.75,-0.07000000029802322,-0.23000000417232513,9.800000190734863,0.9993896484375,-0.0120849609375,0.00408935546875,0.0323486328125,100576.390625,26.23218536376953,26024.0
0.019999999552965164,-0.2199999988079071,9.880000114440918,-6.6875,18.875,-46.5625,-1.5625,6.625,-7.1875,-0.10000000149011612,-0.23000000417232513,9.800000190734863,0.99945068359375,-0.0126953125,0.00628662109375,0.03009033203125,100576.375,26.23292350769043,26064.0
-0.2199999988079071,-0.4399999976158142,9.920000076293945,-5.875,19.1875,-46.875,-1.8125,7.5,-3.875,-0.15000000596046448,-0.25,9.800000190734863,0.99945068359375,-0.0135498046875,0.0089111328125,0.02880859375,100576.7109375,26.23346519470215,26104.0
-0.49000000953674316,-0.4699999988079071,9.920000076293945,-4.75,18.5,-46.875,-0.125,6.875,-1.8125,-0.20999999344348907,-0.25999999046325684,9.800000190734863,0.99945068359375,-0.0140380859375,0.0115966796875,0.02813720703125,100576.40625,26.23330307006836,26144.0
-0.3100000023841858,-0.36000001430511475,9.920000076293945,-5.1875,19.1875,-47.375,0.625,3.6875,-1.75,-0.23999999463558197,-0.25999999046325684,9.789999961853027,0.99945068359375,-0.01416015625,0.01300048828125,0.027587890625,100575.734375,26.233177185058594,26184.0
-0.23999999463558197,-0.28999999165534973,9.899999618530273,-5.1875,19.1875,-47.375,0.5,5.0,0.0,-0.27000001072883606,-0.27000001072883606,9.789999961853027,0.9993896484375,-0.01422119140625,0.01470947265625,0.02764892578125,100575.6328125,26.23308563232422,26224.0
-0.5600000023841858,-0.28999999165534973,9.90999984741211,-4.75,19.1875,-46.875,-0.0625,4.375,1.4375,-0.3100000023841858,-0.27000001072883606,9.789999961853027,0.9993896484375,-0.0142822265625,0.01605224609375,0.02813720703125,100575.4140625,26.232437133789062,26264.0
-0.699999988079071,-0.33000001311302185,9.949999809265137,-4.375,19.0625,-47.6875,-2.0625,0.3125,1.625,-0.3199999928474426,-0.27000001072883606,9.789999961853027,0.99932861328125,-0.01513671875,0.01641845703125,0.02862548828125,100575.6328125,26.233104705810547,26304.0
-0.5199999809265137,-0.49000000953674316,9.949999809265137,-5.25,19.0625,-47.5,-1.4375,-3.1875,0.875,-0.3199999928474426,-0.28999999165534973,9.789999961853027,0.99932861328125,-0.01568603515625,0.01556396484375,0.02899169921875,100576.0546875,26.23418617248535,26344.0
-0.3199999928474426,-0.36000001430511475,9.920000076293945,-4.1875,19.0625,-47.0,0.5625,-3.875,0.5625,-0.30000001192092896,-0.28999999165534973,9.789999961853027,0.99932861328125,-0.015625,0.0142822265625,0.02899169921875,100575.734375,26.232688903808594,26384.0
-0.25,-0.33000001311302185,9.930000305175781,-4.1875,19.0625,-47.0,-0.5625,-4.0,-0.5,-0.27000001072883606,-0.30000001192092896,9.789999961853027,0.9993896484375,-0.015869140625,0.01275634765625,0.02874755859375,100576.0390625,26.235015869140625,26424.0
-0.17000000178813934,-0.4300000071525574,9.880000114440918,-4.5,18.375,-46.5625,-0.3125,-4.4375,-2.1875,-0.23999999463558197,-0.30000001192092896,9.789999961853027,0.9993896484375,-0.0159912109375,0.01116943359375,0.02801513671875,100575.9296875,26.235628128051758,26464.0
-0.14000000059604645,-0.4300000071525574,9.880000114440918,-4.375,19.0625,-47.5,1.3125,-3.3125,-1.6875,-0.20999999344348907,-0.30000001192092896,9.789999961853027,0.99945068359375,-0.01568603515625,0.01007080078125,0.027587890625,100576.0234375,26.234926223754883,26504.0
-0.20000000298023224,-0.4000000059604645,9.890000343322754,-6.0,19.5,-47.0625,1.25,-3.1875,-0.3125,-0.1899999976158142,-0.28999999165534973,9.800000190734863,0.99945068359375,-0.015380859375,0.0089111328125,0.027587890625,100576.171875,26.234384536743164,26544.0
-0.11999999731779099,-0.3700000047683716,9.920000076293945,-4.0625,19.0625,-47.5,0.6875,-3.6875,0.1875,-0.17000000178813934,-0.28999999165534973,9.800000190734863,0.99945068359375,-0.0152587890625,0.00762939453125,0.0277099609375,100576.4140625,26.235719680786133,26584.0
0.029999999329447746,-0.3100000023841858,9.890000343322754,-4.0625,19.0625,-47.5,0.375,-3.3125,0.9375,-0.15000000596046448,-0.28999999165534973,9.800000190734863,0.99945068359375,-0.0152587890625,0.00653076171875,0.02801513671875,100576.3125,26.23672866821289,26624.0
0.10999999940395355,-0.28999999165534973,9.869999885559082,-5.25,18.375,-47.5,-0.0625,-0.5,0.625,-0.12999999523162842,-0.28999999165534973,9.800000190734863,0.99945068359375,-0.0152587890625,0.00628662109375,0.0283203125,100576.2265625,26.238622665405273,26664.0
-0.10999999940395355,-0.33000001311302185,9.920000076293945,-5.6875,18.75,-46.6875,-1.0625,1.125,0.25,-0.12999999523162842,-0.28999999165534973,9.800000190734863,0.99945068359375,-0.0157470703125,0.00653076171875,0.02825927734375,100576.578125,26.237178802490234,26704.0
-0.25999999046325684,-0.4300000071525574,9.979999542236328,-6.0,18.75,-48.6875,-1.8125,-0.0625,-0.3125,-0.12999999523162842,-0.3100000023841858,9.800000190734863,0.99945068359375,-0.0162353515625,0.00628662109375,0.0281982421875,100576.296875,26.236656188964844,26744.0
-0.10999999940395355,-0.41999998688697815,9.920000076293945,-4.875,19.875,-46.6875,-0.25,-0.875,-0.6875,-0.11999999731779099,-0.3100000023841858,9.800000190734863,0.99945068359375,-0.01629638671875,0.006103515625,0.02813720703125,100576.4765625,26.236854553222656,26784.0
-0.2199999988079071,-0.4099999964237213,9.890000343322754,-4.875,19.875,-46.6875,0.375,-0.75,-0.0625,-0.11999999731779099,-0.3100000023841858,9.800000190734863,0.99945068359375,-0.01629638671875,0.005859375,0.02813720703125,100576.4375,26.236421585083008,26824.0
-0.1899999976158142,-0.41999998688697815,9.880000114440918,-5.6875,19.0625,-47.0625,1.125,-0.9375,-0.125,-0.11999999731779099,-0.3100000023841858,9.800000190734863,0.99945068359375,-0.015869140625,0.0054931640625,0.02813720703125,100576.0078125,26.23552131652832,26864.0
-0.15000000596046448,-0.3100000023841858,9.899999618530273,-4.875,19.5,-47.5,1.375,-1.9375,-0.625,-0.10000000149011612,-0.30000001192092896,9.800000190734863,0.99945068359375,-0.01556396484375,0.00469970703125,0.02783203125,100575.90625,26.234834671020508,26904.0
-0.029999999329447746,-0.36000001430511475,9.90999984741211,-4.875,19.0625,-47.5,0.625,-2.8125,-1.1875,-0.09000000357627869,-0.30000001192092896,9.800000190734863,0.99951171875,-0.0152587890625,0.00384521484375,0.02740478515625,100576.0078125,26.236061096191406,26944.0
0.029999999329447746,-0.3700000047683716,9.920000076293945,-5.6875,18.0625,-47.5,1.5,-1.875,-0.875,-0.07000000029802322,-0.28999999165534973,9.800000190734863,0.99951171875,-0.01483154296875,0.00341796875,0.02728271484375,100576.1875,26.236980438232422,26984.0
-0.07000000029802322,-0.23000000417232513,9.90999984741211,-5.6875,18.0625,-47.5,2.0625,-0.75,0.0,-0.07000000029802322,-0.2800000011920929,9.800000190734863,0.99951171875,-0.01409912109375,0.003173828125,0.02728271484375,100575.9921875,26.237667083740234,27024.0
-0.029999999329447746,-0.18000000715255737,9.899999618530273,-6.375,19.0625,-47.5,1.3125,-0.875,-0.0625,-0.05999999865889549,-0.27000001072883606,9.800000190734863,0.99951171875,-0.013671875,0.0028076171875,0.02728271484375,100576.203125,26.239919662475586,27064.0
-0.05999999865889549,-0.18000000715255737,9.920000076293945,-6.0,17.6875,-47.5,0.125,-1.0,0.25,-0.05999999865889549,-0.25999999046325684,9.800000190734863,0.99951171875,-0.0137939453125,0.00244140625,0.02728271484375,100575.6953125,26.237558364868164,27104.0
0.009999999776482582,-0.2199999988079071,9.899999618530273,-5.6875,18.0,-47.5,-1.875,-0.5,0.4375,-0.05000000074505806,-0.27000001072883606,9.800000190734863,0.99951171875,-0.01458740234375,0.00244140625,0.02728271484375,100575.875,26.238676071166992,27144.0
-0.019999999552965164,-0.38999998569488525,9.920000076293945,-6.0,18.375,-47.0,-2.25,-0.4375,0.0625,-0.05000000074505806,-0.2800000011920929,9.800000190734863,0.99951171875,-0.01513671875,0.00238037109375,0.02734375,100575.7734375,26.23779296875,27184.0
-0.11999999731779099,-0.5099999904632568,9.90999984741211,-6.0,18.375,-47.0,-0.625,-0.4375,-1.1875,-0.05000000074505806,-0.28999999165534973,9.800000190734863,0.99951171875,-0.01531982421875,0.00225830078125,0.02685546875,100575.5703125,26.23943328857422,27224.0
-0.05999999865889549,-0.4099999964237213,9.880000114440918,-5.6875,18.0,-47.5,1.125,-1.0625,-2.0,-0.03999999910593033,-0.28999999165534973,9.800000190734863,0.99957275390625,-0.01495361328125,0.0018310546875,0.02618408203125,100575.3828125,26.240659713745117,27264.0
0.0,-0.30000001192092896,9.90999984741211,-6.75,19.875,-47.0625,1.0625,-1.4375,-2.0,-0.029999999329447746,-0.2800000011920929,9.800000190734863,0.99957275390625,-0.01458740234375,0.0013427734375,0.02557373046875,100574.640625,26.23927116394043,27304.0
0.019999999552965164,-0.30000001192092896,9.930000305175781,-4.875,18.375,-47.75,0.5625,-1.125,-1.6875,-0.019999999552965164,-0.2800000011920929,9.800000190734863,0.99957275390625,-0.0145263671875,0.00091552734375,0.0250244140625,100574.296875,26.23995590209961,27344.0
0.029999999329447746,-0.3100000023841858,9.979999542236328,-6.0,19.5,-48.25,0.3125,-0.875,-1.5625,-0.019999999552965164,-0.2800000011920929,9.800000190734863,0.99957275390625,-0.0145263671875,0.0006103515625,0.02447509765625,100574.5,26.24163246154785,27384.0
0.009999999776482582,-0.33000001311302185,9.90999984741211,-6.0,19.5,-48.25,0.3125,-1.25,-0.9375,-0.009999999776482582,-0.2800000011920929,9.800000190734863,0.99957275390625,-0.01446533203125,0.00018310546875,0.0242919921875,100574.390625,26.242895126342773,27424.0
0.05000000074505806,-0.27000001072883606,9.90999984741211,-5.25,19.5,-47.5,0.0625,-0.8125,0.125,0.0,-0.2800000011920929,9.800000190734863,0.99957275390625,-0.01446533203125,-0.0001220703125,0.0242919921875,100574.6015625,26.244409561157227,27464.0
0.0,-0.3100000023841858,9.84000015258789,-7.0625,19.5,-47.75,-0.625,-0.5625,0.875,0.0,-0.2800000011920929,9.800000190734863,0.99957275390625,-0.01470947265625,-0.00018310546875,0.02447509765625,100575.15625,26.245546340942383,27504.0
0.0,-0.3799999952316284,9.920000076293945,-6.375,18.75,-47.75,-1.0625,-0.75,0.6875,0.0,-0.28999999165534973,9.800000190734863,0.99957275390625,-0.01507568359375,-0.00048828125,0.02471923828125,100574.4609375,26.24466323852539,27544.0
0.14000000059604645,-0.4300000071525574,9.899999618530273,-6.75,18.375,-47.5,0.0,-1.8125,-0.0625,0.0,-0.28999999165534973,9.800000190734863,0.99957275390625,-0.01519775390625,-0.00103759765625,0.02471923828125,100574.125,26.2440128326416,27584.0
0.07999999821186066,-0.4099999964237213,9.890000343322754,-6.75,18.375,-47.5,2.125,-1.0,-0.25,0.009999999776482582,-0.28999999165534973,9.800000190734863,0.99957275390625,-0.0145263671875,-0.00140380859375,0.02471923828125,100574.6875,26.2452392578125,27624.0
0.07000000029802322,-0.3199999928474426,9.890000343322754,-7.0625,19.0625,-47.75,2.5,-0.6875,-0.5,0.019999999552965164,-0.27000001072883606,9.800000190734863,0.99957275390625,-0.01373291015625,-0.0015869140625,0.02459716796875,100574.2578125,26.245023727416992,27664.0
0.09000000357627869,-0.25999999046325684,9.869999885559082,-7.375,18.375,-47.5,2.3125,0.1875,-0.3125,0.019999999552965164,-0.25999999046325684,9.800000190734863,0.9996337890625,-0.012939453125,-0.0015869140625,0.02459716796875,100574.3203125,26.246015548706055,27704.0
0.05999999865889549,-0.20999999344348907,9.890000343322754,-7.0,18.375,-47.0625,1.625,-0.125,0.0,0.019999999552965164,-0.23999999463558197,9.800000190734863,0.9996337890625,-0.01239013671875,-0.00152587890625,0.02459716796875,100574.3359375,26.246753692626953,27744.0
0.07000000029802322,-0.20999999344348907,9.90999984741211,-6.25,19.0625,-48.25,1.1875,0.1875,0.4375,0.019999999552965164,-0.23000000417232513,9.800000190734863,0.9996337890625,-0.0120849609375,-0.00152587890625,0.024658203125,100574.1953125,26.247295379638672,27784.0
0.009999999776482582,-0.27000001072883606,9.9399995803833,-6.25,19.0625,-48.25,0.6875,0.4375,1.0,0.019999999552965164,-0.23000000417232513,9.800000190734863,0.9996337890625,-0.01190185546875,-0.00152587890625,0.0250244140625,100574.59375,26.247709274291992,27824.0
0.009999999776482582,-0.27000001072883606,9.930000305175781,-5.875,19.0625,-49.0,1.0,0.5,0.9375,0.019999999552965164,-0.23000000417232513,9.800000190734863,0.9996337890625,-0.01153564453125,-0.00152587890625,0.02532958984375,100573.859375,26.24688148498535,27864.0
-0.05999999865889549,-0.23000000417232513,9.930000305175781,-6.6875,18.0625,-48.25,0.875,0.625,0.8125,0.019999999552965164,-0.2199999988079071,9.800000190734863,0.9996337890625,-0.01129150390625,-0.00140380859375,0.02545166015625,100574.0546875,26.248558044433594,27904.0
-0.09000000357627869,-0.25,9.90999984741211,-5.875,18.0625,-48.6875,0.5625,-0.6875,-0.125,0.019999999552965164,-0.2199999988079071,9.800000190734863,0.9996337890625,-0.01123046875,-0.001708984375,0.02545166015625,100574.0625,26.247493743896484,27944.0
